<Bundle xmlns="http://hl7.org/fhir">
   <id value="samenvatting-wouden-zwangerschap9f861ee8-bc62-11ea-2047-020000000000"/>
   <type value="transaction"/>
   <entry>
      <fullUrl value="urn:uuid:9f860fc4-bc62-11ea-2047-020000000000"/>
      <resource>
         <Composition>
            <id value="samenvatting-zwangerschap2"/>
            <meta>
               <profile value="http://nictiz.nl/fhir/StructureDefinition/bc-TransactionComposition"/>
            </meta>
            <status value="final"/>
            <type>
               <coding>
                  <system value="http://loinc.org"/>
                  <code value="15508-5"/>
                  <display value="Labor and delivery records"/>
               </coding>
            </type>
            <subject>
               <reference value="Patient/WOUDENVANDER"/>
               <display value="Wouden van der"/>
            </subject>
            <author>
               <reference value="Practitioner/9f860bfb-bc62-11ea-2047-020000000000"/>
            </author>
            <title value="Example prio1 vorige zwangerschap"/>
            <section>
               <entry>
                  <reference value="Patient/WOUDENVANDER"/>
                  <display value="Wouden van der"/>
               </entry>
               <entry>
                  <reference value="Organization/1500"/>
                  <display value="Verloskundigenpraktijk B"/>
               </entry>
               <entry>
                  <reference value="Practitioner/9f860bfb-bc62-11ea-2047-020000000000"/>
                  <display value=""/>
               </entry>
               <entry>
                  <reference value="PractitionerRole/1500"/>
                  <display value="Verloskundigenpraktijk B"/>
               </entry>
               <entry>
                  <reference value="EpisodeOfCare/9f861ee8-bc62-11ea-2047-020000000000"/>
                  <display value="Zwangerschap 2 wouden"/>
               </entry>
               <entry>
                  <reference value="Condition/9f861ee8-bc62-11ea-2047-020000000000"/>
                  <display value=""/>
               </entry>
               <entry>
                  <reference value="Observation/9f861ee9-bc62-11ea-2047-020000000000"/>
                  <display value="graviditeitwouden"/>
               </entry>
               <entry>
                  <reference value="Observation/9f861eea-bc62-11ea-2047-020000000000"/>
                  <display value="pariteit voor deze zwangerschapwouden"/>
               </entry>
               <entry>
                  <reference value="Observation/9f861eeb-bc62-11ea-2047-020000000000"/>
                  <display value="wijze einde zwangerschapwouden"/>
               </entry>
               <entry>
                  <reference value="Observation/9f861eec-bc62-11ea-2047-020000000000"/>
                  <display value="datum einde zwangerschapwouden"/>
               </entry>
            </section>
         </Composition>
      </resource>
      <request>
         <method value="PUT"/>
         <url value="Composition/samenvatting-zwangerschap2"/>
      </request>
   </entry>
   <entry>
      <fullUrl value="urn:uuid:9f860bf0-bc62-11ea-2047-020000000000"/>
      <resource>
         <Patient>
            <id value="WOUDENVANDER"/>
            <meta>
               <profile value="http://fhir.nl/fhir/StructureDefinition/nl-core-patient"/>
            </meta>
            <text>
               <status value="generated"/>
               <div xmlns="http://www.w3.org/1999/xhtml">
                  <div>Id 999910413 (BSN), van der Wouden</div>
               </div>
            </text>
            <identifier>
               <system value="http://fhir.nl/fhir/NamingSystem/bsn"/>
               <value value="999910413"/>
            </identifier>
            <name>
               <family value="van der Wouden">
                  <extension url="http://hl7.org/fhir/StructureDefinition/humanname-own-prefix">
                     <valueString value="van der"/>
                  </extension>
                  <extension url="http://hl7.org/fhir/StructureDefinition/humanname-own-name">
                     <valueString value="Wouden"/>
                  </extension>
               </family>
            </name>
         </Patient>
      </resource>
      <request>
         <method value="PUT"/>
         <url value="Patient/WOUDENVANDER"/>
      </request>
   </entry>
   <entry>
      <fullUrl value="urn:uuid:9f860e2b-bc62-11ea-2047-020000000000"/>
      <resource>
         <Organization>
            <id value="1500"/>
            <meta>
               <profile value="http://fhir.nl/fhir/StructureDefinition/nl-core-organization"/>
            </meta>
            <text>
               <status value="generated"/>
               <div xmlns="http://www.w3.org/1999/xhtml">
                  <table>
                     <caption>OrganisatieId: 1500</caption>
                     <tbody>
                        <tr>
                           <th>Naam</th>
                           <td>Verloskundigenpraktijk B</td>
                        </tr>
                     </tbody>
                  </table>
               </div>
            </text>
            <identifier>
               <value value="1500"/>
            </identifier>
            <name value="Verloskundigenpraktijk B"/>
         </Organization>
      </resource>
      <request>
         <method value="PUT"/>
         <url value="Organization/1500"/>
      </request>
   </entry>
   <entry>
      <fullUrl value="urn:uuid:9f860bfb-bc62-11ea-2047-020000000000"/>
      <resource>
         <Practitioner>
            <id value="9f860bfb-bc62-11ea-2047-020000000000"/>
            <meta>
               <profile value="http://fhir.nl/fhir/StructureDefinition/nl-core-practitioner"/>
            </meta>
            <text>
               <status value="generated"/>
               <div xmlns="http://www.w3.org/1999/xhtml">
                  <div/>
               </div>
            </text>
         </Practitioner>
      </resource>
      <request>
         <method value="PUT"/>
         <url value="Practitioner/9f860bfb-bc62-11ea-2047-020000000000"/>
      </request>
   </entry>
   <entry>
      <fullUrl value="urn:uuid:9f860bfa-bc62-11ea-2047-020000000000"/>
      <resource>
         <PractitionerRole>
            <id value="1500"/>
            <meta>
               <profile value="http://fhir.nl/fhir/StructureDefinition/nl-core-practitionerrole"/>
            </meta>
            <text>
               <status value="generated"/>
               <div xmlns="http://www.w3.org/1999/xhtml">
                  <table>
                     <caption>Zorgverlenerrol</caption>
                     <tbody>
                        <tr>
                           <th>Zorgverlener</th>
                           <td>
                              <div>
                                 <a href="Practitioner/9f860bfb-bc62-11ea-2047-020000000000">Practitioner/9f860bfb-bc62-11ea-2047-020000000000</a>
                              </div>
                              <div>
                                 <a href="Organization/1500">Verloskundigenpraktijk B</a>
                              </div>
                           </td>
                        </tr>
                     </tbody>
                  </table>
               </div>
            </text>
            <practitioner>
               <reference value="Practitioner/9f860bfb-bc62-11ea-2047-020000000000"/>
            </practitioner>
            <organization>
               <reference value="Organization/1500"/>
               <display value="Verloskundigenpraktijk B"/>
            </organization>
         </PractitionerRole>
      </resource>
      <request>
         <method value="PUT"/>
         <url value="PractitionerRole/1500"/>
      </request>
   </entry>
   <entry>
      <fullUrl value="urn:uuid:9f861ee8-bc62-11ea-2047-020000000000"/>
      <resource>
         <EpisodeOfCare>
            <id value="9f861ee8-bc62-11ea-2047-020000000000"/>
            <meta>
               <profile value="http://fhir.nl/fhir/StructureDefinition/nl-core-episodeofcare"/>
               <profile value="http://nictiz.nl/fhir/StructureDefinition/bc-MaternalRecord"/>
            </meta>
            <status value="finished"/>
            <type>
               <coding>
                  <system value="http://snomed.info/sct"/>
                  <code value="364320009"/>
                  <display value="Pregnancy observable (observable entity)"/>
               </coding>
            </type>
            <diagnosis>
               <condition>
                  <reference value="Condition/9f861ee8-bc62-11ea-2047-020000000000"/>
                  <display value="Zwangerschap 2 wouden"/>
               </condition>
            </diagnosis>
            <patient>
               <reference value="Patient/WOUDENVANDER"/>
               <display value="Wouden van der"/>
            </patient>
            <managingOrganization>
               <reference value="Organization/1500"/>
               <display value="Verloskundigenpraktijk B"/>
            </managingOrganization>
            <careManager>
               <reference value="Practitioner/9f860bfb-bc62-11ea-2047-020000000000"/>
            </careManager>
         </EpisodeOfCare>
      </resource>
      <request>
         <method value="PUT"/>
         <url value="EpisodeOfCare/9f861ee8-bc62-11ea-2047-020000000000"/>
      </request>
   </entry>
   <entry>
      <fullUrl value="urn:uuid:9f861ee8-bc62-11ea-2047-020000000000"/>
      <resource>
         <Condition>
            <id value="9f861ee8-bc62-11ea-2047-020000000000"/>
            <meta>
               <profile value="http://nictiz.nl/fhir/StructureDefinition/zib-Pregnancy"/>
            </meta>
            <clinicalStatus value="finished"/>
            <code>
               <coding>
                  <system value="http://snomed.info/sct"/>
                  <code value="364320009"/>
                  <display value="Pregnancy observable (observable entity)"/>
               </coding>
            </code>
            <subject>
               <reference value="Patient/WOUDENVANDER"/>
               <display value="Wouden van der"/>
            </subject>
            <context>
               <reference value="EpisodeOfCare/9f861ee8-bc62-11ea-2047-020000000000"/>
               <display value="Zwangerschap 2 wouden"/>
            </context>
         </Condition>
      </resource>
      <request>
         <method value="PUT"/>
         <url value="Condition/9f861ee8-bc62-11ea-2047-020000000000"/>
      </request>
   </entry>
   <entry>
      <fullUrl value="urn:uuid:9f861ee9-bc62-11ea-2047-020000000000"/>
      <resource>
         <Observation>
            <id value="9f861ee9-bc62-11ea-2047-020000000000"/>
            <meta>
               <profile value="http://fhir.nl/fhir/StructureDefinition/nl-core-observation"/>
               <profile value="http://nictiz.nl/fhir/StructureDefinition/zib-Pregnancy-Gravidity"/>
            </meta>
            <extension url="http://nictiz.nl/fhir/StructureDefinition/Observation-focusSTU3">
               <valueReference>
                  <reference value="Condition/9f861ee8-bc62-11ea-2047-020000000000"/>
                  <display value="Zwangerschap 2 wouden"/>
               </valueReference>
            </extension>
            <status value="final"/>
            <code>
               <coding>
                  <system value="http://loinc.org"/>
                  <code value="11996-6"/>
                  <display value="Gravidity"/>
               </coding>
            </code>
            <subject>
               <reference value="Patient/WOUDENVANDER"/>
               <display value="Wouden van der"/>
            </subject>
            <context>
               <reference value="EpisodeOfCare/9f861ee8-bc62-11ea-2047-020000000000"/>
               <display value="Zwangerschap 2 wouden"/>
            </context>
            <valueQuantity>
               <value value="2"/>
            </valueQuantity>
         </Observation>
      </resource>
      <request>
         <method value="PUT"/>
         <url value="Observation/9f861ee9-bc62-11ea-2047-020000000000"/>
      </request>
   </entry>
   <entry>
      <fullUrl value="urn:uuid:9f861eea-bc62-11ea-2047-020000000000"/>
      <resource>
         <Observation>
            <id value="9f861eea-bc62-11ea-2047-020000000000"/>
            <meta>
               <profile value="http://fhir.nl/fhir/StructureDefinition/nl-core-observation"/>
               <profile value="http://nictiz.nl/fhir/StructureDefinition/zib-Pregnancy-Parity"/>
            </meta>
            <extension url="http://nictiz.nl/fhir/StructureDefinition/Observation-focusSTU3">
               <valueReference>
                  <reference value="Condition/9f861ee8-bc62-11ea-2047-020000000000"/>
                  <display value="Zwangerschap 2 wouden"/>
               </valueReference>
            </extension>
            <status value="final"/>
            <code>
               <coding>
                  <system value="http://loinc.org"/>
                  <code value="11977-6"/>
                  <display value="Parity"/>
               </coding>
            </code>
            <subject>
               <reference value="Patient/WOUDENVANDER"/>
               <display value="Wouden van der"/>
            </subject>
            <context>
               <reference value="EpisodeOfCare/9f861ee8-bc62-11ea-2047-020000000000"/>
               <display value="Zwangerschap 2 wouden"/>
            </context>
            <valueQuantity>
               <value value="1"/>
            </valueQuantity>
         </Observation>
      </resource>
      <request>
         <method value="PUT"/>
         <url value="Observation/9f861eea-bc62-11ea-2047-020000000000"/>
      </request>
   </entry>
   <entry>
      <fullUrl value="urn:uuid:9f861eeb-bc62-11ea-2047-020000000000"/>
      <resource>
         <Observation>
            <id value="9f861eeb-bc62-11ea-2047-020000000000"/>
            <meta>
               <profile value="http://fhir.nl/fhir/StructureDefinition/nl-core-observation"/>
               <profile value="http://nictiz.nl/fhir/StructureDefinition/bc-PregnancyObservation"/>
            </meta>
            <extension url="http://nictiz.nl/fhir/StructureDefinition/Observation-focusSTU3">
               <valueReference>
                  <reference value="Condition/9f861ee8-bc62-11ea-2047-020000000000"/>
                  <display value="Zwangerschap 2 wouden"/>
               </valueReference>
            </extension>
            <status value="final"/>
            <code>
               <coding>
                  <system value="urn:oid:2.16.840.1.113883.2.4.4.13"/>
                  <code value="EindeZw"/>
                  <display value="Wijze einde zwangerschap"/>
               </coding>
            </code>
            <subject>
               <reference value="Patient/WOUDENVANDER"/>
               <display value="Wouden van der"/>
            </subject>
            <context>
               <reference value="EpisodeOfCare/9f861ee8-bc62-11ea-2047-020000000000"/>
               <display value="Zwangerschap 2 wouden"/>
            </context>
            <valueCodeableConcept>
               <coding>
                  <system value="urn:oid:2.16.840.1.113883.2.4.4.13.46"/>
                  <code value="4"/>
                  <display value="EUG"/>
               </coding>
            </valueCodeableConcept>
         </Observation>
      </resource>
      <request>
         <method value="PUT"/>
         <url value="Observation/9f861eeb-bc62-11ea-2047-020000000000"/>
      </request>
   </entry>
   <entry>
      <fullUrl value="urn:uuid:9f861eec-bc62-11ea-2047-020000000000"/>
      <resource>
         <Observation>
            <id value="9f861eec-bc62-11ea-2047-020000000000"/>
            <meta>
               <profile value="http://fhir.nl/fhir/StructureDefinition/nl-core-observation"/>
               <profile value="http://nictiz.nl/fhir/StructureDefinition/bc-PregnancyObservation"/>
            </meta>
            <extension url="http://nictiz.nl/fhir/StructureDefinition/Observation-focusSTU3">
               <valueReference>
                  <reference value="Condition/9f861ee8-bc62-11ea-2047-020000000000"/>
                  <display value="Zwangerschap 2 wouden"/>
               </valueReference>
            </extension>
            <status value="final"/>
            <code>
               <coding>
                  <system value="http://snomed.info/sct"/>
                  <code value="118951000146109"/>
                  <display value="Date of end of pregnancy (observable entity)"/>
               </coding>
            </code>
            <subject>
               <reference value="Patient/WOUDENVANDER"/>
               <display value="Wouden van der"/>
            </subject>
            <context>
               <reference value="EpisodeOfCare/9f861ee8-bc62-11ea-2047-020000000000"/>
               <display value="Zwangerschap 2 wouden"/>
            </context>
            <valueDateTime value="2016-11-09"/>
         </Observation>
      </resource>
      <request>
         <method value="PUT"/>
         <url value="Observation/9f861eec-bc62-11ea-2047-020000000000"/>
      </request>
   </entry>
</Bundle>
