<Bundle xmlns="http://hl7.org/fhir">
   <id value="samenvatting-wouden-huidige-zwangerschap"/>
   <type value="transaction"/>
   <entry>
      <fullUrl value="urn:uuid:cf6380e6-bc62-11ea-8859-020000000000"/>
      <resource>
         <Composition>
            <id value="samenvatting-zwangerschap4"/>
            <meta>
               <profile value="http://nictiz.nl/fhir/StructureDefinition/bc-TransactionComposition"/>
            </meta>
            <status value="final"/>
            <type>
               <coding>
                  <system value="http://loinc.org"/>
                  <code value="15508-5"/>
                  <display value="Labor and delivery records"/>
               </coding>
            </type>
            <subject>
               <reference value="Patient/WOUDENVANDER"/>
               <display value="Wouden van der"/>
            </subject>
            <author>
               <reference value="Practitioner/cf6376fb-bc62-11ea-8859-020000000000"/>
            </author>
            <title value="Example prio1 huidige zwangerschap"/>
            <section>
               <entry>
                  <reference value="Patient/WOUDENVANDER"/>
                  <display value="Wouden van der"/>
               </entry>
               <entry>
                  <reference value="Organization/1504"/>
                  <display value="Verloskundigenpraktijk A"/>
               </entry>
               <entry>
                  <reference value="Practitioner/cf6376fb-bc62-11ea-8859-020000000000"/>
                  <display value=""/>
               </entry>
               <entry>
                  <reference value="PractitionerRole/1504"/>
                  <display value="Verloskundigenpraktijk A"/>
               </entry>
               <entry>
                  <reference value="EpisodeOfCare/cf6389eb-bc62-11ea-8859-020000000000"/>
                  <display value="Zwangerschap 4 wouden"/>
               </entry>
               <entry>
                  <reference value="Condition/cf6389eb-bc62-11ea-8859-020000000000"/>
                  <display value=""/>
               </entry>
               <entry>
                  <reference value="Observation/cf637a92-bc62-11ea-8859-020000000000"/>
                  <display value="bloedgroep vrouwwouden"/>
               </entry>
               <entry>
                  <reference value="Observation/cf637c18-bc62-11ea-8859-020000000000"/>
                  <display value="rhesus d factor vrouwwouden"/>
               </entry>
               <entry>
                  <reference value="Observation/cf637d9e-bc62-11ea-8859-020000000000"/>
                  <display value="rhesus c factorwouden"/>
               </entry>
               <entry>
                  <reference value="Observation/cf637f24-bc62-11ea-8859-020000000000"/>
                  <display value="hbwouden"/>
               </entry>
               <entry>
                  <reference value="Observation/cf6389ec-bc62-11ea-8859-020000000000"/>
                  <display value="graviditeitwouden"/>
               </entry>
               <entry>
                  <reference value="Observation/cf6389ed-bc62-11ea-8859-020000000000"/>
                  <display value="pariteitwouden"/>
               </entry>
               <entry>
                  <reference value="Observation/cf6389ef-bc62-11ea-8859-020000000000"/>
                  <display value="a terme datumwouden"/>
               </entry>
            </section>
         </Composition>
      </resource>
      <request>
         <method value="PUT"/>
         <url value="Composition/samenvatting-zwangerschap4"/>
      </request>
   </entry>
   <entry>
      <fullUrl value="urn:uuid:cf6376f0-bc62-11ea-8859-020000000000"/>
      <resource>
         <Patient>
            <id value="WOUDENVANDER"/>
            <meta>
               <profile value="http://fhir.nl/fhir/StructureDefinition/nl-core-patient"/>
            </meta>
            <text>
               <status value="generated"/>
               <div xmlns="http://www.w3.org/1999/xhtml">
                  <div>Id 999910413 (BSN), van der Wouden</div>
               </div>
            </text>
            <identifier>
               <system value="http://fhir.nl/fhir/NamingSystem/bsn"/>
               <value value="999910413"/>
            </identifier>
            <name>
               <family value="van der Wouden">
                  <extension url="http://hl7.org/fhir/StructureDefinition/humanname-own-prefix">
                     <valueString value="van der"/>
                  </extension>
                  <extension url="http://hl7.org/fhir/StructureDefinition/humanname-own-name">
                     <valueString value="Wouden"/>
                  </extension>
               </family>
            </name>
         </Patient>
      </resource>
      <request>
         <method value="PUT"/>
         <url value="Patient/WOUDENVANDER"/>
      </request>
   </entry>
   <entry>
      <fullUrl value="urn:uuid:cf63792b-bc62-11ea-8859-020000000000"/>
      <resource>
         <Organization>
            <id value="1504"/>
            <meta>
               <profile value="http://fhir.nl/fhir/StructureDefinition/nl-core-organization"/>
            </meta>
            <text>
               <status value="generated"/>
               <div xmlns="http://www.w3.org/1999/xhtml">
                  <table>
                     <caption>OrganisatieId: 1504</caption>
                     <tbody>
                        <tr>
                           <th>Naam</th>
                           <td>Verloskundigenpraktijk A</td>
                        </tr>
                     </tbody>
                  </table>
               </div>
            </text>
            <identifier>
               <value value="1504"/>
            </identifier>
            <name value="Verloskundigenpraktijk A"/>
         </Organization>
      </resource>
      <request>
         <method value="PUT"/>
         <url value="Organization/1504"/>
      </request>
   </entry>
   <entry>
      <fullUrl value="urn:uuid:cf6376fb-bc62-11ea-8859-020000000000"/>
      <resource>
         <Practitioner>
            <id value="cf6376fb-bc62-11ea-8859-020000000000"/>
            <meta>
               <profile value="http://fhir.nl/fhir/StructureDefinition/nl-core-practitioner"/>
            </meta>
            <text>
               <status value="generated"/>
               <div xmlns="http://www.w3.org/1999/xhtml">
                  <div/>
               </div>
            </text>
         </Practitioner>
      </resource>
      <request>
         <method value="PUT"/>
         <url value="Practitioner/cf6376fb-bc62-11ea-8859-020000000000"/>
      </request>
   </entry>
   <entry>
      <fullUrl value="urn:uuid:cf6376fa-bc62-11ea-8859-020000000000"/>
      <resource>
         <PractitionerRole>
            <id value="1504"/>
            <meta>
               <profile value="http://fhir.nl/fhir/StructureDefinition/nl-core-practitionerrole"/>
            </meta>
            <text>
               <status value="generated"/>
               <div xmlns="http://www.w3.org/1999/xhtml">
                  <table>
                     <caption>Zorgverlenerrol</caption>
                     <tbody>
                        <tr>
                           <th>Zorgverlener</th>
                           <td>
                              <div>
                                 <a href="Practitioner/cf6376fb-bc62-11ea-8859-020000000000">Practitioner/cf6376fb-bc62-11ea-8859-020000000000</a>
                              </div>
                              <div>
                                 <a href="Organization/1504">Verloskundigenpraktijk A</a>
                              </div>
                           </td>
                        </tr>
                     </tbody>
                  </table>
               </div>
            </text>
            <practitioner>
               <reference value="Practitioner/cf6376fb-bc62-11ea-8859-020000000000"/>
            </practitioner>
            <organization>
               <reference value="Organization/1504"/>
               <display value="Verloskundigenpraktijk A"/>
            </organization>
         </PractitionerRole>
      </resource>
      <request>
         <method value="PUT"/>
         <url value="PractitionerRole/1504"/>
      </request>
   </entry>
   <entry>
      <fullUrl value="urn:uuid:cf6389eb-bc62-11ea-8859-020000000000"/>
      <resource>
         <EpisodeOfCare>
            <id value="cf6389eb-bc62-11ea-8859-020000000000"/>
            <meta>
               <profile value="http://fhir.nl/fhir/StructureDefinition/nl-core-episodeofcare"/>
               <profile value="http://nictiz.nl/fhir/StructureDefinition/bc-MaternalRecord"/>
            </meta>
            <status value="active"/>
            <type>
               <coding>
                  <system value="http://snomed.info/sct"/>
                  <code value="364320009"/>
                  <display value="Pregnancy observable (observable entity)"/>
               </coding>
            </type>
            <diagnosis>
               <condition>
                  <reference value="Condition/cf6389eb-bc62-11ea-8859-020000000000"/>
                  <display value="Zwangerschap 4 wouden"/>
               </condition>
            </diagnosis>
            <patient>
               <reference value="Patient/WOUDENVANDER"/>
               <display value="Wouden van der"/>
            </patient>
            <managingOrganization>
               <reference value="Organization/1504"/>
               <display value="Verloskundigenpraktijk A"/>
            </managingOrganization>
            <careManager>
               <reference value="Practitioner/cf6376fb-bc62-11ea-8859-020000000000"/>
            </careManager>
         </EpisodeOfCare>
      </resource>
      <request>
         <method value="PUT"/>
         <url value="EpisodeOfCare/cf6389eb-bc62-11ea-8859-020000000000"/>
      </request>
   </entry>
   <entry>
      <fullUrl value="urn:uuid:cf6389eb-bc62-11ea-8859-020000000000"/>
      <resource>
         <Condition>
            <id value="cf6389eb-bc62-11ea-8859-020000000000"/>
            <meta>
               <profile value="http://nictiz.nl/fhir/StructureDefinition/zib-Pregnancy"/>
            </meta>
            <clinicalStatus value="active"/>
            <code>
               <coding>
                  <system value="http://snomed.info/sct"/>
                  <code value="364320009"/>
                  <display value="Pregnancy observable (observable entity)"/>
               </coding>
            </code>
            <subject>
               <reference value="Patient/WOUDENVANDER"/>
               <display value="Wouden van der"/>
            </subject>
            <context>
               <reference value="EpisodeOfCare/cf6389eb-bc62-11ea-8859-020000000000"/>
               <display value="Zwangerschap 4 wouden"/>
            </context>
         </Condition>
      </resource>
      <request>
         <method value="PUT"/>
         <url value="Condition/cf6389eb-bc62-11ea-8859-020000000000"/>
      </request>
   </entry>
   <entry>
      <fullUrl value="urn:uuid:cf637a92-bc62-11ea-8859-020000000000"/>
      <resource>
         <Observation>
            <id value="cf637a92-bc62-11ea-8859-020000000000"/>
            <meta>
               <profile value="http://nictiz.nl/fhir/StructureDefinition/zib-LaboratoryTestResult-Observation"/>
            </meta>
            <text>
               <status value="generated"/>
               <div xmlns="http://www.w3.org/1999/xhtml">
                  <table>
                     <caption>Observatie/bepaling. Subject: <a href="Patient/WOUDENVANDER">Wouden van der</a>. Categorie: 49581000146104 (SNOMED CT), Status: definitief</caption>
                     <tbody>
                        <tr>
                           <th>Code</th>
                           <th>Waarde</th>
                        </tr>
                        <tr>
                           <td>
                              <span title="ABO group [Type] in Blood (883-9 - LOINC)">ABO group [Type] in Blood</span>
                           </td>
                           <td>
                              <span title="AB (165743006 - SNOMED CT)">AB</span>
                           </td>
                        </tr>
                     </tbody>
                  </table>
               </div>
            </text>
            <status value="final">
               <extension url="http://nictiz.nl/fhir/StructureDefinition/code-specification">
                  <valueCodeableConcept>
                     <coding>
                        <system value="urn:oid:2.16.840.1.113883.2.4.3.11.60.40.4.16.1"/>
                        <code value="final"/>
                        <display value="Final"/>
                     </coding>
                  </valueCodeableConcept>
               </extension>
            </status>
            <category>
               <coding>
                  <system value="http://snomed.info/sct"/>
                  <code value="49581000146104"/>
               </coding>
            </category>
            <code>
               <coding>
                  <system value="http://loinc.org"/>
                  <code value="883-9"/>
                  <display value="ABO group [Type] in Blood"/>
               </coding>
            </code>
            <subject>
               <reference value="Patient/WOUDENVANDER"/>
               <display value="Wouden van der"/>
            </subject>
            <valueCodeableConcept>
               <coding>
                  <system value="http://snomed.info/sct"/>
                  <code value="165743006"/>
                  <display value="AB"/>
               </coding>
            </valueCodeableConcept>
         </Observation>
      </resource>
      <request>
         <method value="PUT"/>
         <url value="Observation/cf637a92-bc62-11ea-8859-020000000000"/>
      </request>
   </entry>
   <entry>
      <fullUrl value="urn:uuid:cf637c18-bc62-11ea-8859-020000000000"/>
      <resource>
         <Observation>
            <id value="cf637c18-bc62-11ea-8859-020000000000"/>
            <meta>
               <profile value="http://nictiz.nl/fhir/StructureDefinition/zib-LaboratoryTestResult-Observation"/>
            </meta>
            <text>
               <status value="generated"/>
               <div xmlns="http://www.w3.org/1999/xhtml">
                  <table>
                     <caption>Observatie/bepaling. Subject: <a href="Patient/WOUDENVANDER">Wouden van der</a>. Categorie: 49581000146104 (SNOMED CT), Status: definitief</caption>
                     <tbody>
                        <tr>
                           <th>Code</th>
                           <th>Waarde</th>
                        </tr>
                        <tr>
                           <td>
                              <span title="D Ag [Presence] in Blood (1305-2 - LOINC)">D Ag [Presence] in Blood</span>
                           </td>
                           <td>
                              <span title="Rh D Positief (165747007 - SNOMED CT)">Rh D Positief</span>
                           </td>
                        </tr>
                     </tbody>
                  </table>
               </div>
            </text>
            <status value="final">
               <extension url="http://nictiz.nl/fhir/StructureDefinition/code-specification">
                  <valueCodeableConcept>
                     <coding>
                        <system value="urn:oid:2.16.840.1.113883.2.4.3.11.60.40.4.16.1"/>
                        <code value="final"/>
                        <display value="Final"/>
                     </coding>
                  </valueCodeableConcept>
               </extension>
            </status>
            <category>
               <coding>
                  <system value="http://snomed.info/sct"/>
                  <code value="49581000146104"/>
               </coding>
            </category>
            <code>
               <coding>
                  <system value="http://loinc.org"/>
                  <code value="1305-2"/>
                  <display value="D Ag [Presence] in Blood"/>
               </coding>
            </code>
            <subject>
               <reference value="Patient/WOUDENVANDER"/>
               <display value="Wouden van der"/>
            </subject>
            <valueCodeableConcept>
               <coding>
                  <system value="http://snomed.info/sct"/>
                  <code value="165747007"/>
                  <display value="Rh D Positief"/>
               </coding>
            </valueCodeableConcept>
         </Observation>
      </resource>
      <request>
         <method value="PUT"/>
         <url value="Observation/cf637c18-bc62-11ea-8859-020000000000"/>
      </request>
   </entry>
   <entry>
      <fullUrl value="urn:uuid:cf637d9e-bc62-11ea-8859-020000000000"/>
      <resource>
         <Observation>
            <id value="cf637d9e-bc62-11ea-8859-020000000000"/>
            <meta>
               <profile value="http://nictiz.nl/fhir/StructureDefinition/zib-LaboratoryTestResult-Observation"/>
            </meta>
            <text>
               <status value="generated"/>
               <div xmlns="http://www.w3.org/1999/xhtml">
                  <table>
                     <caption>Observatie/bepaling. Subject: <a href="Patient/WOUDENVANDER">Wouden van der</a>. Categorie: 49581000146104 (SNOMED CT), Status: definitief</caption>
                     <tbody>
                        <tr>
                           <th>Code</th>
                           <th>Waarde</th>
                        </tr>
                        <tr>
                           <td>
                              <span title="little c Ag [Presence] on Red Blood Cells (1159-3 - LOINC)">little c Ag [Presence] on Red Blood Cells</span>
                           </td>
                           <td>
                              <span title="Rh c Negatief (733119003 - SNOMED CT)">Rh c Negatief</span>
                           </td>
                        </tr>
                     </tbody>
                  </table>
               </div>
            </text>
            <status value="final">
               <extension url="http://nictiz.nl/fhir/StructureDefinition/code-specification">
                  <valueCodeableConcept>
                     <coding>
                        <system value="urn:oid:2.16.840.1.113883.2.4.3.11.60.40.4.16.1"/>
                        <code value="final"/>
                        <display value="Final"/>
                     </coding>
                  </valueCodeableConcept>
               </extension>
            </status>
            <category>
               <coding>
                  <system value="http://snomed.info/sct"/>
                  <code value="49581000146104"/>
               </coding>
            </category>
            <code>
               <coding>
                  <system value="http://loinc.org"/>
                  <code value="1159-3"/>
                  <display value="little c Ag [Presence] on Red Blood Cells"/>
               </coding>
            </code>
            <subject>
               <reference value="Patient/WOUDENVANDER"/>
               <display value="Wouden van der"/>
            </subject>
            <valueCodeableConcept>
               <coding>
                  <system value="http://snomed.info/sct"/>
                  <code value="733119003"/>
                  <display value="Rh c Negatief"/>
               </coding>
            </valueCodeableConcept>
         </Observation>
      </resource>
      <request>
         <method value="PUT"/>
         <url value="Observation/cf637d9e-bc62-11ea-8859-020000000000"/>
      </request>
   </entry>
   <entry>
      <fullUrl value="urn:uuid:cf637f24-bc62-11ea-8859-020000000000"/>
      <resource>
         <Observation>
            <id value="cf637f24-bc62-11ea-8859-020000000000"/>
            <meta>
               <profile value="http://nictiz.nl/fhir/StructureDefinition/zib-LaboratoryTestResult-Observation"/>
            </meta>
            <text>
               <status value="generated"/>
               <div xmlns="http://www.w3.org/1999/xhtml">
                  <table>
                     <caption>Observatie/bepaling. Subject: <a href="Patient/WOUDENVANDER">Wouden van der</a>. Categorie: 49581000146104 (SNOMED CT), Status: definitief</caption>
                     <tbody>
                        <tr>
                           <th>Bepalingdatum/tijd</th>
                           <td>2020-04-21</td>
                        </tr>
                        <tr>
                           <th>Code</th>
                           <th>Waarde</th>
                        </tr>
                        <tr>
                           <td>
                              <span title="Hemoglobin (Bld) [Mass/Vol] (718-7 - LOINC)">Hemoglobin (Bld) [Mass/Vol]</span>
                           </td>
                           <td>8.5 mmol/L</td>
                        </tr>
                     </tbody>
                  </table>
               </div>
            </text>
            <status value="final">
               <extension url="http://nictiz.nl/fhir/StructureDefinition/code-specification">
                  <valueCodeableConcept>
                     <coding>
                        <system value="urn:oid:2.16.840.1.113883.2.4.3.11.60.40.4.16.1"/>
                        <code value="final"/>
                        <display value="Final"/>
                     </coding>
                  </valueCodeableConcept>
               </extension>
            </status>
            <category>
               <coding>
                  <system value="http://snomed.info/sct"/>
                  <code value="49581000146104"/>
               </coding>
            </category>
            <code>
               <coding>
                  <system value="http://loinc.org"/>
                  <code value="718-7"/>
                  <display value="Hemoglobin (Bld) [Mass/Vol]"/>
               </coding>
            </code>
            <subject>
               <reference value="Patient/WOUDENVANDER"/>
               <display value="Wouden van der"/>
            </subject>
            <effectiveDateTime value="2020-04-21"/>
            <valueQuantity>
               <value value="8.5"/>
               <unit value="mmol/L"/>
               <system value="http://unitsofmeasure.org"/>
               <code value="mmol/L"/>
            </valueQuantity>
         </Observation>
      </resource>
      <request>
         <method value="PUT"/>
         <url value="Observation/cf637f24-bc62-11ea-8859-020000000000"/>
      </request>
   </entry>
   <entry>
      <fullUrl value="urn:uuid:cf6389ec-bc62-11ea-8859-020000000000"/>
      <resource>
         <Observation>
            <id value="cf6389ec-bc62-11ea-8859-020000000000"/>
            <meta>
               <profile value="http://fhir.nl/fhir/StructureDefinition/nl-core-observation"/>
               <profile value="http://nictiz.nl/fhir/StructureDefinition/zib-Pregnancy-Gravidity"/>
            </meta>
            <extension url="http://nictiz.nl/fhir/StructureDefinition/Observation-focusSTU3">
               <valueReference>
                  <reference value="Condition/cf6389eb-bc62-11ea-8859-020000000000"/>
                  <display value="Zwangerschap 4 wouden"/>
               </valueReference>
            </extension>
            <status value="final"/>
            <code>
               <coding>
                  <system value="http://loinc.org"/>
                  <code value="11996-6"/>
                  <display value="Gravidity"/>
               </coding>
            </code>
            <subject>
               <reference value="Patient/WOUDENVANDER"/>
               <display value="Wouden van der"/>
            </subject>
            <context>
               <reference value="EpisodeOfCare/cf6389eb-bc62-11ea-8859-020000000000"/>
               <display value="Zwangerschap 4 wouden"/>
            </context>
            <valueQuantity>
               <value value="4"/>
            </valueQuantity>
         </Observation>
      </resource>
      <request>
         <method value="PUT"/>
         <url value="Observation/cf6389ec-bc62-11ea-8859-020000000000"/>
      </request>
   </entry>
   <entry>
      <fullUrl value="urn:uuid:cf6389ed-bc62-11ea-8859-020000000000"/>
      <resource>
         <Observation>
            <id value="cf6389ed-bc62-11ea-8859-020000000000"/>
            <meta>
               <profile value="http://fhir.nl/fhir/StructureDefinition/nl-core-observation"/>
               <profile value="http://nictiz.nl/fhir/StructureDefinition/zib-Pregnancy-Parity"/>
            </meta>
            <extension url="http://nictiz.nl/fhir/StructureDefinition/Observation-focusSTU3">
               <valueReference>
                  <reference value="Condition/cf6389eb-bc62-11ea-8859-020000000000"/>
                  <display value="Zwangerschap 4 wouden"/>
               </valueReference>
            </extension>
            <status value="final"/>
            <code>
               <coding>
                  <system value="http://loinc.org"/>
                  <code value="11977-6"/>
                  <display value="Parity"/>
               </coding>
            </code>
            <subject>
               <reference value="Patient/WOUDENVANDER"/>
               <display value="Wouden van der"/>
            </subject>
            <context>
               <reference value="EpisodeOfCare/cf6389eb-bc62-11ea-8859-020000000000"/>
               <display value="Zwangerschap 4 wouden"/>
            </context>
            <valueQuantity>
               <value value="2"/>
            </valueQuantity>
         </Observation>
      </resource>
      <request>
         <method value="PUT"/>
         <url value="Observation/cf6389ed-bc62-11ea-8859-020000000000"/>
      </request>
   </entry>
   <entry>
      <fullUrl value="urn:uuid:cf6389ef-bc62-11ea-8859-020000000000"/>
      <resource>
         <Observation>
            <id value="cf6389ef-bc62-11ea-8859-020000000000"/>
            <meta>
               <profile value="http://fhir.nl/fhir/StructureDefinition/nl-core-observation"/>
               <profile value="http://nictiz.nl/fhir/StructureDefinition/zib-Pregnancy-TermDate"/>
            </meta>
            <extension url="http://nictiz.nl/fhir/StructureDefinition/Observation-focusSTU3">
               <valueReference>
                  <reference value="Condition/cf6389eb-bc62-11ea-8859-020000000000"/>
                  <display value="Zwangerschap 4 wouden"/>
               </valueReference>
            </extension>
            <status value="final"/>
            <code>
               <coding>
                  <system value="http://loinc.org"/>
                  <code value="11778-8"/>
                  <display value="Deliv date Clin est"/>
               </coding>
            </code>
            <subject>
               <reference value="Patient/WOUDENVANDER"/>
               <display value="Wouden van der"/>
            </subject>
            <context>
               <reference value="EpisodeOfCare/cf6389eb-bc62-11ea-8859-020000000000"/>
               <display value="Zwangerschap 4 wouden"/>
            </context>
            <valueDateTime value="2020-06-29"/>
         </Observation>
      </resource>
      <request>
         <method value="PUT"/>
         <url value="Observation/cf6389ef-bc62-11ea-8859-020000000000"/>
      </request>
   </entry>
</Bundle>
