<Bundle xmlns="http://hl7.org/fhir">
   <id value="samenvatting-wouden-zwangerschapaa45bcf8-bc62-11ea-1214-020000000000"/>
   <type value="transaction"/>
   <entry>
      <fullUrl value="urn:uuid:aa45aeb0-bc62-11ea-1214-020000000000"/>
      <resource>
         <Composition>
            <id value="samenvatting-zwangerschap3"/>
            <meta>
               <profile value="http://nictiz.nl/fhir/StructureDefinition/bc-TransactionComposition"/>
            </meta>
            <status value="final"/>
            <type>
               <coding>
                  <system value="http://loinc.org"/>
                  <code value="15508-5"/>
                  <display value="Labor and delivery records"/>
               </coding>
            </type>
            <subject>
               <reference value="Patient/WOUDENVANDER"/>
               <display value="Wouden van der"/>
            </subject>
            <author>
               <reference value="Practitioner/aa45aa0b-bc62-11ea-1214-020000000000"/>
            </author>
            <title value="Example prio1 vorige zwangerschap"/>
            <section>
               <entry>
                  <reference value="Patient/WOUDENVANDER"/>
                  <display value="Wouden van der"/>
               </entry>
               <entry>
                  <reference value="Patient/aa45ac3a-bc62-11ea-1214-020000000000"/>
                  <display value="Kind wouden"/>
               </entry>
               <entry>
                  <reference value="Organization/1504"/>
                  <display value="Verloskundigenpraktijk A"/>
               </entry>
               <entry>
                  <reference value="Practitioner/aa45aa0b-bc62-11ea-1214-020000000000"/>
                  <display value=""/>
               </entry>
               <entry>
                  <reference value="PractitionerRole/1504"/>
                  <display value="Verloskundigenpraktijk A"/>
               </entry>
               <entry>
                  <reference value="EpisodeOfCare/aa45bcf8-bc62-11ea-1214-020000000000"/>
                  <display value="Zwangerschap 3 wouden"/>
               </entry>
               <entry>
                  <reference value="Condition/aa45bcf8-bc62-11ea-1214-020000000000"/>
                  <display value=""/>
               </entry>
               <entry>
                  <reference value="Procedure/aa45bcfd-bc62-11ea-1214-020000000000"/>
                  <display value="bevalling zwangerschap 3 wouden"/>
               </entry>
               <entry>
                  <reference value="Procedure/aa45bd03-bc62-11ea-1214-020000000000"/>
                  <display value="baring zwangerschap 3 wouden"/>
               </entry>
               <entry>
                  <reference value="Observation/aa45bcf9-bc62-11ea-1214-020000000000"/>
                  <display value="graviditeitwouden"/>
               </entry>
               <entry>
                  <reference value="Observation/aa45bcfa-bc62-11ea-1214-020000000000"/>
                  <display value="pariteit voor deze zwangerschapwouden"/>
               </entry>
               <entry>
                  <reference value="Observation/aa45bcfb-bc62-11ea-1214-020000000000"/>
                  <display value="wijze einde zwangerschapwouden"/>
               </entry>
               <entry>
                  <reference value="Observation/aa45bcfc-bc62-11ea-1214-020000000000"/>
                  <display value="datum einde zwangerschapwouden"/>
               </entry>
               <entry>
                  <reference value="Observation/aa45bcfe-bc62-11ea-1214-020000000000"/>
                  <display value="tijdstip begin actieve ontsluitingwouden"/>
               </entry>
               <entry>
                  <reference value="Observation/aa45bd00-bc62-11ea-1214-020000000000"/>
                  <display value="hoeveelheid bloedverlieswouden"/>
               </entry>
               <entry>
                  <reference value="Observation/aa45bd01-bc62-11ea-1214-020000000000"/>
                  <display value="conditie perineum postpartumwouden"/>
               </entry>
               <entry>
                  <reference value="Observation/aa45bd07-bc62-11ea-1214-020000000000"/>
                  <display value="tijdstip actief meepersenwouden"/>
               </entry>
               <entry>
                  <reference value="Observation/aa45bd0a-bc62-11ea-1214-020000000000"/>
                  <display value="type partuswouden"/>
               </entry>
               <entry>
                  <reference value="Observation/aa45bd0d-bc62-11ea-1214-020000000000"/>
                  <display value="apgarscore na 5 minwouden"/>
               </entry>
               <entry>
                  <reference value="Observation/aa45bd0e-bc62-11ea-1214-020000000000"/>
                  <display value="geboortegewichtwouden"/>
               </entry>
            </section>
         </Composition>
      </resource>
      <request>
         <method value="PUT"/>
         <url value="Composition/samenvatting-zwangerschap3"/>
      </request>
   </entry>
   <entry>
      <fullUrl value="urn:uuid:aa45aa00-bc62-11ea-1214-020000000000"/>
      <resource>
         <Patient>
            <id value="WOUDENVANDER"/>
            <meta>
               <profile value="http://fhir.nl/fhir/StructureDefinition/nl-core-patient"/>
            </meta>
            <text>
               <status value="generated"/>
               <div xmlns="http://www.w3.org/1999/xhtml">
                  <div>Id 999910413 (BSN), van der Wouden</div>
               </div>
            </text>
            <identifier>
               <system value="http://fhir.nl/fhir/NamingSystem/bsn"/>
               <value value="999910413"/>
            </identifier>
            <name>
               <family value="van der Wouden">
                  <extension url="http://hl7.org/fhir/StructureDefinition/humanname-own-prefix">
                     <valueString value="van der"/>
                  </extension>
                  <extension url="http://hl7.org/fhir/StructureDefinition/humanname-own-name">
                     <valueString value="Wouden"/>
                  </extension>
               </family>
            </name>
         </Patient>
      </resource>
      <request>
         <method value="PUT"/>
         <url value="Patient/WOUDENVANDER"/>
      </request>
   </entry>
   <entry>
      <fullUrl value="urn:uuid:aa45ac3a-bc62-11ea-1214-020000000000"/>
      <resource>
         <Patient>
            <id value="aa45ac3a-bc62-11ea-1214-020000000000"/>
            <meta>
               <profile value="http://fhir.nl/fhir/StructureDefinition/nl-core-patient"/>
            </meta>
            <text>
               <status value="generated"/>
               <div xmlns="http://www.w3.org/1999/xhtml">
                  <div>29 november 2017</div>
               </div>
            </text>
            <birthDate value="2017-11-29"/>
         </Patient>
      </resource>
      <request>
         <method value="PUT"/>
         <url value="Patient/aa45ac3a-bc62-11ea-1214-020000000000"/>
      </request>
   </entry>
   <entry>
      <fullUrl value="urn:uuid:aa45ac77-bc62-11ea-1214-020000000000"/>
      <resource>
         <Organization>
            <id value="1504"/>
            <meta>
               <profile value="http://fhir.nl/fhir/StructureDefinition/nl-core-organization"/>
            </meta>
            <text>
               <status value="generated"/>
               <div xmlns="http://www.w3.org/1999/xhtml">
                  <table>
                     <caption>OrganisatieId: 1504</caption>
                     <tbody>
                        <tr>
                           <th>Naam</th>
                           <td>Verloskundigenpraktijk A</td>
                        </tr>
                     </tbody>
                  </table>
               </div>
            </text>
            <identifier>
               <value value="1504"/>
            </identifier>
            <name value="Verloskundigenpraktijk A"/>
         </Organization>
      </resource>
      <request>
         <method value="PUT"/>
         <url value="Organization/1504"/>
      </request>
   </entry>
   <entry>
      <fullUrl value="urn:uuid:aa45aa0b-bc62-11ea-1214-020000000000"/>
      <resource>
         <Practitioner>
            <id value="aa45aa0b-bc62-11ea-1214-020000000000"/>
            <meta>
               <profile value="http://fhir.nl/fhir/StructureDefinition/nl-core-practitioner"/>
            </meta>
            <text>
               <status value="generated"/>
               <div xmlns="http://www.w3.org/1999/xhtml">
                  <div/>
               </div>
            </text>
         </Practitioner>
      </resource>
      <request>
         <method value="PUT"/>
         <url value="Practitioner/aa45aa0b-bc62-11ea-1214-020000000000"/>
      </request>
   </entry>
   <entry>
      <fullUrl value="urn:uuid:aa45aa0a-bc62-11ea-1214-020000000000"/>
      <resource>
         <PractitionerRole>
            <id value="1504"/>
            <meta>
               <profile value="http://fhir.nl/fhir/StructureDefinition/nl-core-practitionerrole"/>
            </meta>
            <text>
               <status value="generated"/>
               <div xmlns="http://www.w3.org/1999/xhtml">
                  <table>
                     <caption>Zorgverlenerrol</caption>
                     <tbody>
                        <tr>
                           <th>Zorgverlener</th>
                           <td>
                              <div>
                                 <a href="Practitioner/aa45aa0b-bc62-11ea-1214-020000000000">Practitioner/aa45aa0b-bc62-11ea-1214-020000000000</a>
                              </div>
                              <div>
                                 <a href="Organization/1504">Verloskundigenpraktijk A</a>
                              </div>
                           </td>
                        </tr>
                     </tbody>
                  </table>
               </div>
            </text>
            <practitioner>
               <reference value="Practitioner/aa45aa0b-bc62-11ea-1214-020000000000"/>
            </practitioner>
            <organization>
               <reference value="Organization/1504"/>
               <display value="Verloskundigenpraktijk A"/>
            </organization>
         </PractitionerRole>
      </resource>
      <request>
         <method value="PUT"/>
         <url value="PractitionerRole/1504"/>
      </request>
   </entry>
   <entry>
      <fullUrl value="urn:uuid:aa45bcf8-bc62-11ea-1214-020000000000"/>
      <resource>
         <EpisodeOfCare>
            <id value="aa45bcf8-bc62-11ea-1214-020000000000"/>
            <meta>
               <profile value="http://fhir.nl/fhir/StructureDefinition/nl-core-episodeofcare"/>
               <profile value="http://nictiz.nl/fhir/StructureDefinition/bc-MaternalRecord"/>
            </meta>
            <status value="finished"/>
            <type>
               <coding>
                  <system value="http://snomed.info/sct"/>
                  <code value="364320009"/>
                  <display value="Pregnancy observable (observable entity)"/>
               </coding>
            </type>
            <diagnosis>
               <condition>
                  <reference value="Condition/aa45bcf8-bc62-11ea-1214-020000000000"/>
                  <display value="Zwangerschap 3 wouden"/>
               </condition>
            </diagnosis>
            <patient>
               <reference value="Patient/WOUDENVANDER"/>
               <display value="Wouden van der"/>
            </patient>
            <managingOrganization>
               <reference value="Organization/1504"/>
               <display value="Verloskundigenpraktijk A"/>
            </managingOrganization>
            <careManager>
               <reference value="Practitioner/aa45aa0b-bc62-11ea-1214-020000000000"/>
            </careManager>
         </EpisodeOfCare>
      </resource>
      <request>
         <method value="PUT"/>
         <url value="EpisodeOfCare/aa45bcf8-bc62-11ea-1214-020000000000"/>
      </request>
   </entry>
   <entry>
      <fullUrl value="urn:uuid:aa45bcf8-bc62-11ea-1214-020000000000"/>
      <resource>
         <Condition>
            <id value="aa45bcf8-bc62-11ea-1214-020000000000"/>
            <meta>
               <profile value="http://nictiz.nl/fhir/StructureDefinition/zib-Pregnancy"/>
            </meta>
            <clinicalStatus value="finished"/>
            <code>
               <coding>
                  <system value="http://snomed.info/sct"/>
                  <code value="364320009"/>
                  <display value="Pregnancy observable (observable entity)"/>
               </coding>
            </code>
            <subject>
               <reference value="Patient/WOUDENVANDER"/>
               <display value="Wouden van der"/>
            </subject>
            <context>
               <reference value="EpisodeOfCare/aa45bcf8-bc62-11ea-1214-020000000000"/>
               <display value="Zwangerschap 3 wouden"/>
            </context>
         </Condition>
      </resource>
      <request>
         <method value="PUT"/>
         <url value="Condition/aa45bcf8-bc62-11ea-1214-020000000000"/>
      </request>
   </entry>
   <entry>
      <fullUrl value="urn:uuid:aa45bcfd-bc62-11ea-1214-020000000000"/>
      <resource>
         <Procedure>
            <id value="aa45bcfd-bc62-11ea-1214-020000000000"/>
            <meta>
               <profile value="http://nictiz.nl/fhir/StructureDefinition/zib-Procedure"/>
               <profile value="http://nictiz.nl/fhir/StructureDefinition/bc-DeliveryProcedure"/>
            </meta>
            <status value="completed"/>
            <category>
               <coding>
                  <system value="http://snomed.info/sct"/>
                  <code value="386637004"/>
                  <display value="Obstetric procedure (procedure)"/>
               </coding>
            </category>
            <code>
               <coding>
                  <system value="http://snomed.info/sct"/>
                  <code value="236973005"/>
                  <display value="Delivery procedure (procedure)"/>
               </coding>
            </code>
            <subject>
               <reference value="Patient/WOUDENVANDER"/>
               <display value="Wouden van der"/>
            </subject>
            <context>
               <reference value="EpisodeOfCare/aa45bcf8-bc62-11ea-1214-020000000000"/>
               <display value="Zwangerschap 3 wouden"/>
            </context>
            <performedPeriod>
               <start value="2017-11-29T12:41:00+01:00"/>
            </performedPeriod>
            <reasonReference>
               <reference value="Condition/aa45bcf8-bc62-11ea-1214-020000000000"/>
               <display value="Zwangerschap 3 wouden"/>
            </reasonReference>
         </Procedure>
      </resource>
      <request>
         <method value="PUT"/>
         <url value="Procedure/aa45bcfd-bc62-11ea-1214-020000000000"/>
      </request>
   </entry>
   <entry>
      <fullUrl value="urn:uuid:aa45bd03-bc62-11ea-1214-020000000000"/>
      <resource>
         <Procedure>
            <id value="aa45bd03-bc62-11ea-1214-020000000000"/>
            <meta>
               <profile value="http://nictiz.nl/fhir/StructureDefinition/zib-Procedure"/>
               <profile value="http://nictiz.nl/fhir/StructureDefinition/bc-Birth"/>
            </meta>
            <partOf>
               <reference value="Procedure/aa45bcfd-bc62-11ea-1214-020000000000"/>
               <display value="bevalling zwangerschap 3 wouden"/>
            </partOf>
            <status value="completed"/>
            <category>
               <coding>
                  <system value="http://snomed.info/sct"/>
                  <code value="386637004"/>
                  <display value="Obstetric procedure (procedure)"/>
               </coding>
            </category>
            <code>
               <coding>
                  <system value="http://snomed.info/sct"/>
                  <code value="3950001"/>
                  <display value="Birth (finding)"/>
               </coding>
            </code>
            <subject>
               <reference value="Patient/aa45ac3a-bc62-11ea-1214-020000000000"/>
               <display value="Kind wouden"/>
            </subject>
            <context>
               <reference value="EpisodeOfCare/aa45bcf8-bc62-11ea-1214-020000000000"/>
               <display value="Zwangerschap 3 wouden"/>
            </context>
            <reasonReference>
               <reference value="Condition/aa45bcf8-bc62-11ea-1214-020000000000"/>
               <display value="Zwangerschap 3 wouden"/>
            </reasonReference>
         </Procedure>
      </resource>
      <request>
         <method value="PUT"/>
         <url value="Procedure/aa45bd03-bc62-11ea-1214-020000000000"/>
      </request>
   </entry>
   <entry>
      <fullUrl value="urn:uuid:aa45bcf9-bc62-11ea-1214-020000000000"/>
      <resource>
         <Observation>
            <id value="aa45bcf9-bc62-11ea-1214-020000000000"/>
            <meta>
               <profile value="http://fhir.nl/fhir/StructureDefinition/nl-core-observation"/>
               <profile value="http://nictiz.nl/fhir/StructureDefinition/zib-Pregnancy-Gravidity"/>
            </meta>
            <extension url="http://nictiz.nl/fhir/StructureDefinition/Observation-focusSTU3">
               <valueReference>
                  <reference value="Condition/aa45bcf8-bc62-11ea-1214-020000000000"/>
                  <display value="Zwangerschap 3 wouden"/>
               </valueReference>
            </extension>
            <status value="final"/>
            <code>
               <coding>
                  <system value="http://loinc.org"/>
                  <code value="11996-6"/>
                  <display value="Gravidity"/>
               </coding>
            </code>
            <subject>
               <reference value="Patient/WOUDENVANDER"/>
               <display value="Wouden van der"/>
            </subject>
            <context>
               <reference value="EpisodeOfCare/aa45bcf8-bc62-11ea-1214-020000000000"/>
               <display value="Zwangerschap 3 wouden"/>
            </context>
            <valueQuantity>
               <value value="3"/>
            </valueQuantity>
         </Observation>
      </resource>
      <request>
         <method value="PUT"/>
         <url value="Observation/aa45bcf9-bc62-11ea-1214-020000000000"/>
      </request>
   </entry>
   <entry>
      <fullUrl value="urn:uuid:aa45bcfa-bc62-11ea-1214-020000000000"/>
      <resource>
         <Observation>
            <id value="aa45bcfa-bc62-11ea-1214-020000000000"/>
            <meta>
               <profile value="http://fhir.nl/fhir/StructureDefinition/nl-core-observation"/>
               <profile value="http://nictiz.nl/fhir/StructureDefinition/zib-Pregnancy-Parity"/>
            </meta>
            <extension url="http://nictiz.nl/fhir/StructureDefinition/Observation-focusSTU3">
               <valueReference>
                  <reference value="Condition/aa45bcf8-bc62-11ea-1214-020000000000"/>
                  <display value="Zwangerschap 3 wouden"/>
               </valueReference>
            </extension>
            <status value="final"/>
            <code>
               <coding>
                  <system value="http://loinc.org"/>
                  <code value="11977-6"/>
                  <display value="Parity"/>
               </coding>
            </code>
            <subject>
               <reference value="Patient/WOUDENVANDER"/>
               <display value="Wouden van der"/>
            </subject>
            <context>
               <reference value="EpisodeOfCare/aa45bcf8-bc62-11ea-1214-020000000000"/>
               <display value="Zwangerschap 3 wouden"/>
            </context>
            <valueQuantity>
               <value value="1"/>
            </valueQuantity>
         </Observation>
      </resource>
      <request>
         <method value="PUT"/>
         <url value="Observation/aa45bcfa-bc62-11ea-1214-020000000000"/>
      </request>
   </entry>
   <entry>
      <fullUrl value="urn:uuid:aa45bcfb-bc62-11ea-1214-020000000000"/>
      <resource>
         <Observation>
            <id value="aa45bcfb-bc62-11ea-1214-020000000000"/>
            <meta>
               <profile value="http://fhir.nl/fhir/StructureDefinition/nl-core-observation"/>
               <profile value="http://nictiz.nl/fhir/StructureDefinition/bc-PregnancyObservation"/>
            </meta>
            <extension url="http://nictiz.nl/fhir/StructureDefinition/Observation-focusSTU3">
               <valueReference>
                  <reference value="Condition/aa45bcf8-bc62-11ea-1214-020000000000"/>
                  <display value="Zwangerschap 3 wouden"/>
               </valueReference>
            </extension>
            <status value="final"/>
            <code>
               <coding>
                  <system value="urn:oid:2.16.840.1.113883.2.4.4.13"/>
                  <code value="EindeZw"/>
                  <display value="Wijze einde zwangerschap"/>
               </coding>
            </code>
            <subject>
               <reference value="Patient/WOUDENVANDER"/>
               <display value="Wouden van der"/>
            </subject>
            <context>
               <reference value="EpisodeOfCare/aa45bcf8-bc62-11ea-1214-020000000000"/>
               <display value="Zwangerschap 3 wouden"/>
            </context>
            <valueCodeableConcept>
               <coding>
                  <system value="urn:oid:2.16.840.1.113883.2.4.4.13.46"/>
                  <code value="1"/>
                  <display value="Partus"/>
               </coding>
            </valueCodeableConcept>
         </Observation>
      </resource>
      <request>
         <method value="PUT"/>
         <url value="Observation/aa45bcfb-bc62-11ea-1214-020000000000"/>
      </request>
   </entry>
   <entry>
      <fullUrl value="urn:uuid:aa45bcfc-bc62-11ea-1214-020000000000"/>
      <resource>
         <Observation>
            <id value="aa45bcfc-bc62-11ea-1214-020000000000"/>
            <meta>
               <profile value="http://fhir.nl/fhir/StructureDefinition/nl-core-observation"/>
               <profile value="http://nictiz.nl/fhir/StructureDefinition/bc-PregnancyObservation"/>
            </meta>
            <extension url="http://nictiz.nl/fhir/StructureDefinition/Observation-focusSTU3">
               <valueReference>
                  <reference value="Condition/aa45bcf8-bc62-11ea-1214-020000000000"/>
                  <display value="Zwangerschap 3 wouden"/>
               </valueReference>
            </extension>
            <status value="final"/>
            <code>
               <coding>
                  <system value="http://snomed.info/sct"/>
                  <code value="118951000146109"/>
                  <display value="Date of end of pregnancy (observable entity)"/>
               </coding>
            </code>
            <subject>
               <reference value="Patient/WOUDENVANDER"/>
               <display value="Wouden van der"/>
            </subject>
            <context>
               <reference value="EpisodeOfCare/aa45bcf8-bc62-11ea-1214-020000000000"/>
               <display value="Zwangerschap 3 wouden"/>
            </context>
            <valueDateTime value="2017-11-29"/>
         </Observation>
      </resource>
      <request>
         <method value="PUT"/>
         <url value="Observation/aa45bcfc-bc62-11ea-1214-020000000000"/>
      </request>
   </entry>
   <entry>
      <fullUrl value="urn:uuid:aa45bcfe-bc62-11ea-1214-020000000000"/>
      <resource>
         <Observation>
            <id value="aa45bcfe-bc62-11ea-1214-020000000000"/>
            <meta>
               <profile value="http://fhir.nl/fhir/StructureDefinition/nl-core-observation"/>
               <profile value="http://nictiz.nl/fhir/StructureDefinition/bc-DeliveryObservation"/>
            </meta>
            <extension url="http://nictiz.nl/fhir/StructureDefinition/Observation-focusSTU3">
               <valueReference>
                  <reference value="Procedure/aa45bcfd-bc62-11ea-1214-020000000000"/>
                  <display value="bevalling zwangerschap 3 wouden"/>
               </valueReference>
            </extension>
            <status value="final"/>
            <code>
               <coding>
                  <system value="http://snomed.info/sct"/>
                  <code value="249120008"/>
                  <display value="Onset of labor first stage (observable entity)"/>
               </coding>
            </code>
            <subject>
               <reference value="Patient/WOUDENVANDER"/>
               <display value="Wouden van der"/>
            </subject>
            <context>
               <reference value="EpisodeOfCare/aa45bcf8-bc62-11ea-1214-020000000000"/>
               <display value="Zwangerschap 3 wouden"/>
            </context>
            <valueDateTime value="2017-11-29T12:41:00+01:00"/>
         </Observation>
      </resource>
      <request>
         <method value="PUT"/>
         <url value="Observation/aa45bcfe-bc62-11ea-1214-020000000000"/>
      </request>
   </entry>
   <entry>
      <fullUrl value="urn:uuid:aa45bd00-bc62-11ea-1214-020000000000"/>
      <resource>
         <Observation>
            <id value="aa45bd00-bc62-11ea-1214-020000000000"/>
            <meta>
               <profile value="http://fhir.nl/fhir/StructureDefinition/nl-core-observation"/>
               <profile value="http://nictiz.nl/fhir/StructureDefinition/bc-DeliveryObservation"/>
            </meta>
            <extension url="http://nictiz.nl/fhir/StructureDefinition/Observation-focusSTU3">
               <valueReference>
                  <reference value="Procedure/aa45bcfd-bc62-11ea-1214-020000000000"/>
                  <display value="bevalling zwangerschap 3 wouden"/>
               </valueReference>
            </extension>
            <status value="final"/>
            <code>
               <coding>
                  <system value="http://snomed.info/sct"/>
                  <code value="364332008"/>
                  <display value="Blood loss in labour"/>
               </coding>
            </code>
            <subject>
               <reference value="Patient/WOUDENVANDER"/>
               <display value="Wouden van der"/>
            </subject>
            <context>
               <reference value="EpisodeOfCare/aa45bcf8-bc62-11ea-1214-020000000000"/>
               <display value="Zwangerschap 3 wouden"/>
            </context>
            <valueQuantity>
               <value value="400"/>
               <unit value="ml"/>
               <system value="http://unitsofmeasure.org"/>
               <code value="ml"/>
            </valueQuantity>
         </Observation>
      </resource>
      <request>
         <method value="PUT"/>
         <url value="Observation/aa45bd00-bc62-11ea-1214-020000000000"/>
      </request>
   </entry>
   <entry>
      <fullUrl value="urn:uuid:aa45bd01-bc62-11ea-1214-020000000000"/>
      <resource>
         <Observation>
            <id value="aa45bd01-bc62-11ea-1214-020000000000"/>
            <meta>
               <profile value="http://fhir.nl/fhir/StructureDefinition/nl-core-observation"/>
               <profile value="http://nictiz.nl/fhir/StructureDefinition/bc-DeliveryObservation"/>
            </meta>
            <extension url="http://nictiz.nl/fhir/StructureDefinition/Observation-focusSTU3">
               <valueReference>
                  <reference value="Procedure/aa45bcfd-bc62-11ea-1214-020000000000"/>
                  <display value="bevalling zwangerschap 3 wouden"/>
               </valueReference>
            </extension>
            <status value="final"/>
            <code>
               <coding>
                  <system value="http://snomed.info/sct"/>
                  <code value="364297003"/>
                  <display value="Female perineum observable (observable entity)"/>
               </coding>
            </code>
            <subject>
               <reference value="Patient/WOUDENVANDER"/>
               <display value="Wouden van der"/>
            </subject>
            <context>
               <reference value="EpisodeOfCare/aa45bcf8-bc62-11ea-1214-020000000000"/>
               <display value="Zwangerschap 3 wouden"/>
            </context>
            <valueCodeableConcept>
               <coding>
                  <system value="http://snomed.info/sct"/>
                  <code value="289854007"/>
                  <display value="Gaaf"/>
               </coding>
            </valueCodeableConcept>
         </Observation>
      </resource>
      <request>
         <method value="PUT"/>
         <url value="Observation/aa45bd01-bc62-11ea-1214-020000000000"/>
      </request>
   </entry>
   <entry>
      <fullUrl value="urn:uuid:aa45bd07-bc62-11ea-1214-020000000000"/>
      <resource>
         <Observation>
            <id value="aa45bd07-bc62-11ea-1214-020000000000"/>
            <meta>
               <profile value="http://fhir.nl/fhir/StructureDefinition/nl-core-observation"/>
               <profile value="http://nictiz.nl/fhir/StructureDefinition/bc-BirthObservation"/>
            </meta>
            <extension url="http://nictiz.nl/fhir/StructureDefinition/Observation-focusSTU3">
               <valueReference>
                  <reference value="Procedure/aa45bd03-bc62-11ea-1214-020000000000"/>
                  <display value="baring zwangerschap 3 wouden"/>
               </valueReference>
            </extension>
            <status value="final"/>
            <code>
               <coding>
                  <system value="http://snomed.info/sct"/>
                  <code value="249163006"/>
                  <display value="Onset of pushing (in labor) (observable entity)"/>
               </coding>
            </code>
            <subject>
               <reference value="Patient/WOUDENVANDER"/>
               <display value="Wouden van der"/>
            </subject>
            <context>
               <reference value="EpisodeOfCare/aa45bcf8-bc62-11ea-1214-020000000000"/>
               <display value="Zwangerschap 3 wouden"/>
            </context>
            <valueDateTime value="2017-11-29T16:39:00+01:00"/>
         </Observation>
      </resource>
      <request>
         <method value="PUT"/>
         <url value="Observation/aa45bd07-bc62-11ea-1214-020000000000"/>
      </request>
   </entry>
   <entry>
      <fullUrl value="urn:uuid:aa45bd0a-bc62-11ea-1214-020000000000"/>
      <resource>
         <Observation>
            <id value="aa45bd0a-bc62-11ea-1214-020000000000"/>
            <meta>
               <profile value="http://fhir.nl/fhir/StructureDefinition/nl-core-observation"/>
               <profile value="http://nictiz.nl/fhir/StructureDefinition/bc-BirthObservation"/>
            </meta>
            <extension url="http://nictiz.nl/fhir/StructureDefinition/Observation-focusSTU3">
               <valueReference>
                  <reference value="Procedure/aa45bd03-bc62-11ea-1214-020000000000"/>
                  <display value="baring zwangerschap 3 wouden"/>
               </valueReference>
            </extension>
            <status value="final"/>
            <code>
               <coding>
                  <system value="http://snomed.info/sct"/>
                  <code value="364336006"/>
                  <display value="Pattern of delivery (observable entity)"/>
               </coding>
            </code>
            <subject>
               <reference value="Patient/WOUDENVANDER"/>
               <display value="Wouden van der"/>
            </subject>
            <context>
               <reference value="EpisodeOfCare/aa45bcf8-bc62-11ea-1214-020000000000"/>
               <display value="Zwangerschap 3 wouden"/>
            </context>
            <valueCodeableConcept>
               <coding>
                  <system value="http://snomed.info/sct"/>
                  <code value="177184002"/>
                  <display value="Spontaan"/>
               </coding>
            </valueCodeableConcept>
         </Observation>
      </resource>
      <request>
         <method value="PUT"/>
         <url value="Observation/aa45bd0a-bc62-11ea-1214-020000000000"/>
      </request>
   </entry>
   <entry>
      <fullUrl value="urn:uuid:aa45bd0d-bc62-11ea-1214-020000000000"/>
      <resource>
         <Observation>
            <id value="aa45bd0d-bc62-11ea-1214-020000000000"/>
            <meta>
               <profile value="http://fhir.nl/fhir/StructureDefinition/nl-core-observation"/>
               <profile value="http://nictiz.nl/fhir/StructureDefinition/zib-ApgarScore"/>
            </meta>
            <status value="final"/>
            <code>
               <coding>
                  <system value="http://loinc.org"/>
                  <code value="9274-2"/>
                  <display value="5 minute Apgar Score"/>
               </coding>
            </code>
            <subject>
               <reference value="Patient/aa45ac3a-bc62-11ea-1214-020000000000"/>
               <display value="Kind wouden"/>
            </subject>
            <context>
               <reference value="EpisodeOfCare/aa45bcf8-bc62-11ea-1214-020000000000"/>
               <display value="Zwangerschap 3 wouden"/>
            </context>
            <valueQuantity>
               <value value="7"/>
            </valueQuantity>
         </Observation>
      </resource>
      <request>
         <method value="PUT"/>
         <url value="Observation/aa45bd0d-bc62-11ea-1214-020000000000"/>
      </request>
   </entry>
   <entry>
      <fullUrl value="urn:uuid:aa45bd0e-bc62-11ea-1214-020000000000"/>
      <resource>
         <Observation>
            <id value="aa45bd0e-bc62-11ea-1214-020000000000"/>
            <meta>
               <profile value="http://fhir.nl/fhir/StructureDefinition/nl-core-observation"/>
               <profile value="http://nictiz.nl/fhir/StructureDefinition/bc-BirthObservation"/>
            </meta>
            <status value="final"/>
            <code>
               <coding>
                  <system value="http://loinc.org"/>
                  <code value="8339-4"/>
                  <display value="Birth weight Measured"/>
               </coding>
            </code>
            <subject>
               <reference value="Patient/aa45ac3a-bc62-11ea-1214-020000000000"/>
               <display value="Kind wouden"/>
            </subject>
            <context>
               <reference value="EpisodeOfCare/aa45bcf8-bc62-11ea-1214-020000000000"/>
               <display value="Zwangerschap 3 wouden"/>
            </context>
            <valueQuantity>
               <value value="2845"/>
               <unit value="gram"/>
               <system value="http://unitsofmeasure.org"/>
               <code value="g"/>
            </valueQuantity>
         </Observation>
      </resource>
      <request>
         <method value="PUT"/>
         <url value="Observation/aa45bd0e-bc62-11ea-1214-020000000000"/>
      </request>
   </entry>
</Bundle>
