<Bundle xmlns="http://hl7.org/fhir">
    <type value="transaction"/>
    <entry>
        <fullUrl value="${UUID-ST}"/>
        <resource>
            <Communication>
                <meta>
                    <profile value="http://nictiz.nl/fhir/StructureDefinition/dwv-PatientCorrectionsCommunication"/>
                </meta>
                <identifier>
                    <system value="urn:oid:2.16.840.1.113883.2.4.3.11.999.​130.1.40"/>
                    <value value="08ff9cfb-f579-4acc-a3c7-e47e93c9b511"/>
                </identifier>
                <status value="completed"/>
                <category>
                    <coding>
                        <system value="https://hl7.org/fhir/uv/fhir-patient-correction/CodeSystem/PatientCorrectionCommunicationTypes"/>
                        <code value="medRecCxReq"/>
                        <display value="Correction request by the Patient or RelatedPerson"/>
                    </coding>
                </category>
                <subject>
                    <reference value="urn:uuid:c6b57df6-d212-4890-aa1a-bb937de2ca99"/>
                    <type value="Patient"/>
                    <display value="Johan XXX_Helleman"/>
                </subject>
                <topic>
                    <text value="Telefoonnummer wijzigen"/>
                </topic>
                <sent value="${DATE, T, D, -0}T07:35:00Z"/>
                <recipient>
                    <reference value="urn:uuid:da36079d-5bd4-4d8c-af38-fd4b6e5459c4"/>
                    <type value="Organization"/>
                    <display value="Test Medisch Centrum"/>
                </recipient>
                <sender>
                    <reference value="urn:uuid:c6b57df6-d212-4890-aa1a-bb937de2ca99"/>
                    <type value="Patient"/>
                    <display value="Johan XXX_Helleman"/>
                </sender>
            </Communication>
        </resource>
        <request>
            <method value="POST"/>
            <url value="Communication"/>
        </request>
    </entry>
    <entry>
        <fullUrl value="urn:uuid:c6b57df6-d212-4890-aa1a-bb937de2ca99"/>
        <resource>
            <Patient>
            <meta>
                <profile value="http://nictiz.nl/fhir/StructureDefinition/nl-core-Patient"/>
            </meta>
            <text>
               <status value="extensions"/>
               <div xmlns="http://www.w3.org/1999/xhtml">
                  <div>Id 1285290 (urn:oid:2.16.840.1.113883.2.4.3.11.999.​130.1.135), Johan XXX_Helleman, Man, 25 juli 1964</div>
                  <div>Knolweg 1000, 9999XA Stitswerd, NLD</div>
               </div>
            </text>
            <identifier>
                <system value="urn:oid:2.16.840.1.113883.2.4.3.11.999.​130.1.135"/>
                <value value="1285290"/>
            </identifier>
            <name>
                <use value="official"/>
                <text value="Johan XXX_Helleman"/>
                <family value="XXX_Helleman">
                    <extension url="http://hl7.org/fhir/StructureDefinition/humanname-own-name">
                        <valueString value="XXX_Helleman"/>
                    </extension>
                </family>
                <given value="Johan">
                    <extension url="http://hl7.org/fhir/StructureDefinition/iso21090-EN-qualifier">
                        <valueCode value="BR"/>
                    </extension>
                </given>
            </name>
            <gender value="male">
                <extension url="http://nictiz.nl/fhir/StructureDefinition/ext-CodeSpecification">
                    <valueCodeableConcept>
                        <coding>
                            <system value="http://terminology.hl7.org/CodeSystem/v3-AdministrativeGender"/>
                            <code value="M"/>
                            <display value="Man"/>
                        </coding>
                    </valueCodeableConcept>
                </extension>
            </gender>
            <birthDate value="1964-07-25"/>
            <address>
                <line value="Knolweg 1000">
                    <extension url="http://hl7.org/fhir/StructureDefinition/iso21090-ADXP-streetName">
                        <valueString value="Knolweg"/>
                    </extension>
                    <extension url="http://hl7.org/fhir/StructureDefinition/iso21090-ADXP-houseNumber">
                        <valueString value="1000"/>
                    </extension>
                </line>
                <city value="Stitswerd"/>
                <postalCode value="9999XA"/>
                <country value="NLD">
                    <extension url="http://nictiz.nl/fhir/StructureDefinition/ext-CodeSpecification">
                        <valueCodeableConcept>
                            <coding>
                                <system value="urn:oid:2.16.840.1.113883.2.4.4.16.34"/>
                                <code value="6030"/>
                                <display value="Nederland"/>
                            </coding>
                        </valueCodeableConcept>
                    </extension>
                </country>
            </address>
            </Patient>
        </resource>
        <request>
            <method value="POST"/>
            <url value="Patient"/>
        </request>
    </entry>
    <entry>
        <fullUrl value="urn:uuid:da36079d-5bd4-4d8c-af38-fd4b6e5459c4"/>
        <resource>
            <Organization>
            <meta>
                <profile value="http://nictiz.nl/fhir/StructureDefinition/nl-core-HealthcareProvider-Organization"/>
            </meta>
            <text>
               <status value="extensions"/>
               <div xmlns="http://www.w3.org/1999/xhtml">
                  <table>
                     <caption>Organisatie. Id: 12341234 (URA)</caption>
                     <tbody>
                        <tr>
                           <th>Naam</th>
                           <td>Test Medisch Centrum</td>
                        </tr>
                     </tbody>
                  </table>
               </div>
            </text>
            <identifier>
                <system value="http://fhir.nl/fhir/NamingSystem/ura"/>
                <value value="12341234"/>
            </identifier>
            <name value="Test Medisch Centrum"/>
            </Organization>
        </resource>
        <request>
            <method value="POST"/>
            <url value="Organization"/>
        </request>
    </entry>
</Bundle>
