{
  "resourceType": "Bundle",
  "id": "av-mp-va-tst-7-3-90-miljoen-nr-v30",
  "meta": {
    "profile": [ "http://nictiz.nl/fhir/StructureDefinition/mp-MedicationPrescriptionProcessing-Bundle" ]
  },
  "type": "transaction",
  "entry": [ {
    "fullUrl": "urn:uuid:3988632a-6b7d-11ec-0000-020000000000",
    "resource": {
      "resourceType": "MedicationDispense",
      "meta": {
        "profile": [ "http://nictiz.nl/fhir/StructureDefinition/mp-AdministrationAgreement" ],
        "tag": [ {
          "system": "http://terminology.hl7.org/CodeSystem/common-tags",
          "code": "actionable"
        } ]
      },
      "text": {
        "status": "extensions",
        "div": "<div xmlns=\"http://www.w3.org/1999/xhtml\">\n            <table>\n              <caption>MedicationDispense. Subject: Patient, G. XXX_Hess. Id: MBH_300_magistraal90miljoennr_TA (urn:oid:2.16.840.1.113883.2.4.3.11.999.77.422037009.1), Categorie: <span title=\"toedieningsafspraak (422037009 - SNOMED CT)\">toedieningsafspraak</span>, Status: onbekend<span style=\"display: block;\">Uitvoerende: Healthcare provider (organization), Apotheek De Gulle Gaper</span>\n              </caption>\n              <tbody>\n                <tr>\n                  <th>Gebaseerd op</th>\n                  <td>relatie naar medicatieafspraak met identificatie: MBH_300_magistraal90miljoennr_MA || 2.16.840.1.113883.2.4.3.11.999.77.16076005.1 (Id: MBH_300_magistraal90miljoennr_MA (urn:oid:2.16.840.1.113883.2.4.3.11.999.77.16076005.1))</td>\n                </tr>\n                <tr>\n                  <th>Medicatie</th>\n                  <td>Eigen artikel: ureumzalf</td>\n                </tr>\n                <tr>\n                  <th>Doseerinstructie</th>\n                  <td>\n                    <div>Timing: <div>eenmalig per dag</div>\n                    </div>\n                    <div>Toedieningsweg: <span title=\"cutaan (53 - G-Standaard thesaurus subtabel 0007)\">cutaan</span>\n                    </div>\n                  </td>\n                </tr>\n              </tbody>\n            </table>\n          </div>"
      },
      "extension": [ {
        "url": "http://nictiz.nl/fhir/StructureDefinition/ext-RegistrationDateTime",
        "valueDateTime": "${DATE, T, D, +0}T13:08:00+02:00"
      }, {
        "url": "http://nictiz.nl/fhir/StructureDefinition/ext-RenderedDosageInstruction",
        "valueString": "Vanaf <T+0D{00:00:00}> t/m <T+30D{23:59:59}>, 1x per dag, cutaan"
      }, {
        "url": "http://nictiz.nl/fhir/StructureDefinition/ext-TimeInterval.Period",
        "valuePeriod": {
          "start": "${DATE, T, D, +0}T00:00:00+02:00",
          "end": "${DATE, T, D, +30}T23:59:59+02:00"
        }
      }, {
        "url": "http://nictiz.nl/fhir/StructureDefinition/ext-PharmaceuticalTreatment.Identifier",
        "valueIdentifier": {
          "system": "urn:oid:2.16.840.1.113883.2.4.3.11.999.77.1.1",
          "value": "MBH_300_magistraal90miljoennr"
        }
      } ],
      "identifier": [ {
        "system": "urn:oid:2.16.840.1.113883.2.4.3.11.999.77.422037009.1",
        "value": "MBH_300_magistraal90miljoennr_TA"
      } ],
      "status": "unknown",
      "category": {
        "coding": [ {
          "system": "http://snomed.info/sct",
          "code": "422037009",
          "display": "toedieningsafspraak"
        } ]
      },
      "medicationReference": {
        "reference": "urn:uuid:f74cdd04-6b18-11ec-0000-020000000000",
        "type": "Medication",
        "display": "Eigen artikel: ureumzalf"
      },
      "subject": {
        "reference": "urn:uuid:abfa2efe-6b61-11ec-0000-020000000000",
        "type": "Patient",
        "display": "Patient, G. XXX_Hess"
      },
      "performer": [ {
        "actor": {
          "reference": "urn:uuid:10079464-6b64-11ec-0000-020000000000",
          "type": "Organization",
          "display": "Healthcare provider (organization), Apotheek De Gulle Gaper"
        }
      } ],
      "authorizingPrescription": [ {
        "type": "MedicationRequest",
        "identifier": {
          "system": "urn:oid:2.16.840.1.113883.2.4.3.11.999.77.16076005.1",
          "value": "MBH_300_magistraal90miljoennr_MA"
        },
        "display": "relatie naar medicatieafspraak met identificatie: MBH_300_magistraal90miljoennr_MA || 2.16.840.1.113883.2.4.3.11.999.77.16076005.1"
      } ],
      "dosageInstruction": [ {
        "timing": {
          "repeat": {
            "frequency": 1,
            "period": 1,
            "periodUnit": "d"
          }
        },
        "route": {
          "coding": [ {
            "system": "urn:oid:2.16.840.1.113883.2.4.4.9",
            "code": "53",
            "display": "cutaan"
          } ]
        }
      } ]
    },
    "request": {
      "method": "POST",
      "url": "MedicationDispense"
    }
  }, {
    "fullUrl": "urn:uuid:22d1d3dd-6b21-11ec-0000-020000000000",
    "resource": {
      "resourceType": "MedicationDispense",
      "meta": {
        "profile": [ "http://nictiz.nl/fhir/StructureDefinition/mp-MedicationDispense" ],
        "tag": [ {
          "system": "http://terminology.hl7.org/CodeSystem/common-tags",
          "code": "actionable"
        } ]
      },
      "text": {
        "status": "extensions",
        "div": "<div xmlns=\"http://www.w3.org/1999/xhtml\">\n            <table>\n              <caption>MedicationDispense. Subject: Patient, G. XXX_Hess. Id: MBH_300_magistraal90miljoennr_MVE (urn:oid:2.16.840.1.113883.2.4.3.11.999.77.373784005.1), Categorie: <span title=\"verstrekken van medicatie (373784005 - SNOMED CT)\">verstrekken van medicatie</span>, Status: voltooid<span style=\"display: block;\">Uitvoerende: Healthcare provider (organization), Apotheek De Gulle Gaper</span>\n              </caption>\n              <tbody>\n                <tr>\n                  <th>Gebaseerd op</th>\n                  <td>relatie naar verstrekkingsverzoek met identificatie: MBH_300_magistraal90miljoennr_VV || 2.16.840.1.113883.2.4.3.11.999.77.52711000146108.1 (Id: MBH_300_magistraal90miljoennr_VV (urn:oid:2.16.840.1.113883.2.4.3.11.999.77.52711000146108.1))</td>\n                </tr>\n                <tr>\n                  <th>Medicatie</th>\n                  <td>Eigen artikel: ureumzalf</td>\n                </tr>\n                <tr>\n                  <th>Hoeveelheid</th>\n                  <td>100 gram</td>\n                </tr>\n                <tr>\n                  <th>Datum overhandigd</th>\n                  <td>${DATE, T, D, +0}T13:08:00+02:00</td>\n                </tr>\n              </tbody>\n            </table>\n          </div>"
      },
      "extension": [ {
        "url": "http://nictiz.nl/fhir/StructureDefinition/ext-PharmaceuticalTreatment.Identifier",
        "valueIdentifier": {
          "system": "urn:oid:2.16.840.1.113883.2.4.3.11.999.77.1.1",
          "value": "MBH_300_magistraal90miljoennr"
        }
      } ],
      "identifier": [ {
        "system": "urn:oid:2.16.840.1.113883.2.4.3.11.999.77.373784005.1",
        "value": "MBH_300_magistraal90miljoennr_MVE"
      } ],
      "status": "completed",
      "category": {
        "coding": [ {
          "system": "http://snomed.info/sct",
          "code": "373784005",
          "display": "verstrekken van medicatie"
        } ]
      },
      "medicationReference": {
        "reference": "urn:uuid:f74cdd04-6b18-11ec-0000-020000000000",
        "type": "Medication",
        "display": "Eigen artikel: ureumzalf"
      },
      "subject": {
        "reference": "urn:uuid:abfa2efe-6b61-11ec-0000-020000000000",
        "type": "Patient",
        "display": "Patient, G. XXX_Hess"
      },
      "performer": [ {
        "actor": {
          "reference": "urn:uuid:10079464-6b64-11ec-0000-020000000000",
          "type": "Organization",
          "display": "Healthcare provider (organization), Apotheek De Gulle Gaper"
        }
      } ],
      "authorizingPrescription": [ {
        "type": "MedicationRequest",
        "identifier": {
          "system": "urn:oid:2.16.840.1.113883.2.4.3.11.999.77.52711000146108.1",
          "value": "MBH_300_magistraal90miljoennr_VV"
        },
        "display": "relatie naar verstrekkingsverzoek met identificatie: MBH_300_magistraal90miljoennr_VV || 2.16.840.1.113883.2.4.3.11.999.77.52711000146108.1"
      } ],
      "quantity": {
        "extension": [ {
          "url": "http://hl7.org/fhir/StructureDefinition/iso21090-PQ-translation",
          "valueQuantity": {
            "value": 100,
            "unit": "gram",
            "system": "urn:oid:2.16.840.1.113883.2.4.4.1.900.2",
            "code": "215"
          }
        } ],
        "value": 100,
        "unit": "gram",
        "system": "http://unitsofmeasure.org",
        "code": "g"
      },
      "whenHandedOver": "${DATE, T, D, +0}T13:08:00+02:00"
    },
    "request": {
      "method": "POST",
      "url": "MedicationDispense"
    }
  }, {
    "fullUrl": "urn:uuid:abfa2efe-6b61-11ec-0000-020000000000",
    "resource": {
      "resourceType": "Patient",
      "meta": {
        "profile": [ "http://nictiz.nl/fhir/StructureDefinition/nl-core-Patient" ]
      },
      "text": {
        "status": "extensions",
        "div": "<div xmlns=\"http://www.w3.org/1999/xhtml\">\n            <div>Id 999900614 (BSN), <span title=\"Naamsamenstelling: Eigennaam\">G. XXX_Hess</span>, Man, 3 november 1963</div>\n          </div>"
      },
      "identifier": [ {
        "system": "http://fhir.nl/fhir/NamingSystem/bsn",
        "value": "999900614"
      } ],
      "name": [ {
        "extension": [ {
          "url": "http://hl7.org/fhir/StructureDefinition/humanname-assembly-order",
          "valueCode": "NL1"
        } ],
        "use": "official",
        "text": "G. XXX_Hess",
        "family": "XXX_Hess",
        "_family": {
          "extension": [ {
            "url": "http://hl7.org/fhir/StructureDefinition/humanname-own-name",
            "valueString": "XXX_Hess"
          } ]
        },
        "given": [ "G." ],
        "_given": [ {
          "extension": [ {
            "url": "http://hl7.org/fhir/StructureDefinition/iso21090-EN-qualifier",
            "valueCode": "IN"
          } ]
        } ]
      } ],
      "gender": "male",
      "_gender": {
        "extension": [ {
          "url": "http://nictiz.nl/fhir/StructureDefinition/ext-CodeSpecification",
          "valueCodeableConcept": {
            "coding": [ {
              "system": "http://terminology.hl7.org/CodeSystem/v3-AdministrativeGender",
              "code": "M",
              "display": "Man"
            } ]
          }
        } ]
      },
      "birthDate": "1963-11-03"
    },
    "request": {
      "method": "POST",
      "url": "Patient"
    }
  }, {
    "fullUrl": "urn:uuid:10079464-6b64-11ec-0000-020000000000",
    "resource": {
      "resourceType": "Organization",
      "meta": {
        "profile": [ "http://nictiz.nl/fhir/StructureDefinition/nl-core-HealthcareProvider-Organization" ]
      },
      "text": {
        "status": "extensions",
        "div": "<div xmlns=\"http://www.w3.org/1999/xhtml\">\n            <table>\n              <caption>Organisatie. Id: 01236578 (URA)</caption>\n              <tbody>\n                <tr>\n                  <th>Naam</th>\n                  <td>Apotheek De Gulle Gaper</td>\n                </tr>\n                <tr>\n                  <th>Adres</th>\n                  <td>Dorpsstraat 12 A, 1234AA Ons Dorp (Werk)</td>\n                </tr>\n              </tbody>\n            </table>\n          </div>"
      },
      "identifier": [ {
        "system": "http://fhir.nl/fhir/NamingSystem/ura",
        "value": "01236578"
      } ],
      "name": "Apotheek De Gulle Gaper",
      "address": [ {
        "extension": [ {
          "url": "http://nictiz.nl/fhir/StructureDefinition/ext-AddressInformation.AddressType",
          "valueCodeableConcept": {
            "coding": [ {
              "system": "http://terminology.hl7.org/CodeSystem/v3-AddressUse",
              "code": "WP",
              "display": "Werkadres"
            } ]
          }
        } ],
        "use": "work",
        "line": [ "Dorpsstraat 12 A" ],
        "_line": [ {
          "extension": [ {
            "url": "http://hl7.org/fhir/StructureDefinition/iso21090-ADXP-streetName",
            "valueString": "Dorpsstraat"
          }, {
            "url": "http://hl7.org/fhir/StructureDefinition/iso21090-ADXP-houseNumber",
            "valueString": "12"
          }, {
            "url": "http://hl7.org/fhir/StructureDefinition/iso21090-ADXP-buildingNumberSuffix",
            "valueString": "A"
          } ]
        } ],
        "city": "Ons Dorp",
        "postalCode": "1234AA"
      } ]
    },
    "request": {
      "method": "POST",
      "url": "Organization"
    }
  }, {
    "fullUrl": "urn:uuid:f74cdd04-6b18-11ec-0000-020000000000",
    "resource": {
      "resourceType": "Medication",
      "meta": {
        "profile": [ "http://nictiz.nl/fhir/StructureDefinition/mp-PharmaceuticalProduct" ]
      },
      "text": {
        "status": "extensions",
        "div": "<div xmlns=\"http://www.w3.org/1999/xhtml\">\n            <table>\n              <tbody>\n                <tr>\n                  <th>Code</th>\n                  <td>\n                    <span title=\"Eigen artikel: ureumzalf (90000001 - 2.16.840.1.113883.2.4.3.11.9999.77.90000000.1.1111)\">Eigen artikel: ureumzalf</span>\n                  </td>\n                  <th>Ingredients</th>\n                  <td>\n                    <ul>\n                      <li>\n                        <span title=\"UREUM ZALF 10% FAGRON (1042467 - G-Standaard HPK)\">UREUM ZALF 10% FAGRON</span>\n                      </li>\n                    </ul>\n                  </td>\n                </tr>\n              </tbody>\n            </table>\n          </div>"
      },
      "extension": [ {
        "url": "http://nictiz.nl/fhir/StructureDefinition/ext-PharmaceuticalProduct.Description",
        "valueString": "Titel: Ureum 10% in eucerine cum aqua 100gr           Regel: UREUM 10gr           Regel: EUCERINE MET WATER FAGRON ad 100gr"
      } ],
      "code": {
        "coding": [ {
          "system": "urn:oid:2.16.840.1.113883.2.4.3.11.9999.77.90000000.1.1111",
          "code": "90000001",
          "display": "Eigen artikel: ureumzalf",
          "userSelected": true
        } ],
        "text": "Ureum 10% in eucerine cum aqua 100gr"
      },
      "ingredient": [ {
        "itemCodeableConcept": {
          "coding": [ {
            "system": "urn:oid:2.16.840.1.113883.2.4.4.7",
            "code": "1042467",
            "display": "UREUM ZALF 10% FAGRON"
          } ]
        },
        "strength": {
          "numerator": {
            "extension": [ {
              "url": "http://hl7.org/fhir/StructureDefinition/iso21090-PQ-translation",
              "valueQuantity": {
                "value": 10,
                "unit": "gram",
                "system": "urn:oid:2.16.840.1.113883.2.4.4.1.900.2",
                "code": "215"
              }
            } ],
            "value": 10,
            "unit": "gram",
            "system": "http://unitsofmeasure.org",
            "code": "g"
          },
          "denominator": {
            "extension": [ {
              "url": "http://hl7.org/fhir/StructureDefinition/iso21090-PQ-translation",
              "valueQuantity": {
                "value": 100,
                "unit": "gram",
                "system": "urn:oid:2.16.840.1.113883.2.4.4.1.900.2",
                "code": "215"
              }
            } ],
            "value": 100,
            "unit": "gram",
            "system": "http://unitsofmeasure.org",
            "code": "g"
          }
        }
      } ]
    },
    "request": {
      "method": "POST",
      "url": "Medication"
    }
  } ]
}