{
  "resourceType": "Bundle",
  "id": "av-mp-va-tst-2-4-aanvullendeinformatie-v30",
  "meta": {
    "profile": [ "http://nictiz.nl/fhir/StructureDefinition/mp-MedicationPrescriptionProcessing-Bundle" ]
  },
  "type": "transaction",
  "entry": [ {
    "fullUrl": "urn:uuid:22e60232-6b7b-11ec-0000-020000000000",
    "resource": {
      "resourceType": "MedicationDispense",
      "meta": {
        "profile": [ "http://nictiz.nl/fhir/StructureDefinition/mp-AdministrationAgreement" ],
        "tag": [ {
          "system": "http://terminology.hl7.org/CodeSystem/common-tags",
          "code": "actionable"
        } ]
      },
      "text": {
        "status": "extensions",
        "div": "<div xmlns=\"http://www.w3.org/1999/xhtml\">\n            <table>\n              <caption>MedicationDispense. Subject: Patient, C. XXX_Coenen. Id: MBH_300_aanvullendeinformatiewensen_TA (urn:oid:2.16.840.1.113883.2.4.3.11.999.77.422037009.1), Categorie: <span title=\"toedieningsafspraak (422037009 - SNOMED CT)\">toedieningsafspraak</span>, Status: onbekend<span style=\"display: block;\">Uitvoerende: Healthcare provider (organization), Apotheek De Gulle Gaper</span>\n              </caption>\n              <tfoot>\n                <tr>\n                  <td colspan=\"2\">Bijwerking besproken</td>\n                </tr>\n              </tfoot>\n              <tbody>\n                <tr>\n                  <th>Gebaseerd op</th>\n                  <td>relatie naar medicatieafspraak met identificatie: MBH_300_aanvullendeinformatiewensen_MA || 2.16.840.1.113883.2.4.3.11.999.77.16076005.1 (Id: MBH_300_aanvullendeinformatiewensen_MA (urn:oid:2.16.840.1.113883.2.4.3.11.999.77.16076005.1))</td>\n                </tr>\n                <tr>\n                  <th>Medicatie</th>\n                  <td>BROXIL CAPSULE 500MG</td>\n                </tr>\n                <tr>\n                  <th>Doseerinstructie</th>\n                  <td>\n                    <div>Timing: <div>19:00:00. Tijden zo precies mogelijk aanhouden</div>\n                    </div>\n                    <div>Toedieningsweg: <span title=\"Oraal (9 - G-Standaard thesaurus subtabel 0007)\">Oraal</span>\n                    </div>\n                    <div>Dosering: doseAndRate TODO</div>\n                  </td>\n                </tr>\n              </tbody>\n            </table>\n          </div>"
      },
      "extension": [ {
        "url": "http://nictiz.nl/fhir/StructureDefinition/ext-RegistrationDateTime",
        "valueDateTime": "${DATE, T, D, -5}T09:06:00+02:00"
      }, {
        "url": "http://nictiz.nl/fhir/StructureDefinition/ext-RenderedDosageInstruction",
        "valueString": "Vanaf <T-4D{00:00:00}> t/m <T+5D{23:59:59}>, 3 maal per dag 1 stuk, oraal"
      }, {
        "url": "http://nictiz.nl/fhir/StructureDefinition/ext-TimeInterval.Period",
        "valuePeriod": {
          "start": "${DATE, T, D, -4}T00:00:00+02:00",
          "end": "${DATE, T, D, +5}T23:59:59+02:00"
        }
      }, {
        "url": "http://nictiz.nl/fhir/StructureDefinition/ext-PharmaceuticalTreatment.Identifier",
        "valueIdentifier": {
          "system": "urn:oid:2.16.840.1.113883.2.4.3.11.999.77.1.1",
          "value": "MBH_300_aanvullendeinformatiewensen"
        }
      } ],
      "identifier": [ {
        "system": "urn:oid:2.16.840.1.113883.2.4.3.11.999.77.422037009.1",
        "value": "MBH_300_aanvullendeinformatiewensen_TA"
      } ],
      "status": "unknown",
      "category": {
        "coding": [ {
          "system": "http://snomed.info/sct",
          "code": "422037009",
          "display": "toedieningsafspraak"
        } ]
      },
      "medicationReference": {
        "reference": "urn:uuid:c8dcf604-6b6b-11ec-0000-020000000000",
        "type": "Medication",
        "display": "BROXIL CAPSULE 500MG"
      },
      "subject": {
        "reference": "urn:uuid:a5f60932-6aac-11ec-0000-020000000000",
        "type": "Patient",
        "display": "Patient, C. XXX_Coenen"
      },
      "performer": [ {
        "actor": {
          "reference": "urn:uuid:10079464-6b64-11ec-0000-020000000000",
          "type": "Organization",
          "display": "Healthcare provider (organization), Apotheek De Gulle Gaper"
        }
      } ],
      "authorizingPrescription": [ {
        "type": "MedicationRequest",
        "identifier": {
          "system": "urn:oid:2.16.840.1.113883.2.4.3.11.999.77.16076005.1",
          "value": "MBH_300_aanvullendeinformatiewensen_MA"
        },
        "display": "relatie naar medicatieafspraak met identificatie: MBH_300_aanvullendeinformatiewensen_MA || 2.16.840.1.113883.2.4.3.11.999.77.16076005.1"
      } ],
      "note": [ {
        "text": "Bijwerking besproken"
      } ],
      "dosageInstruction": [ {
        "timing": {
          "repeat": {
            "extension": [ {
              "url": "http://hl7.org/fhir/StructureDefinition/timing-exact",
              "valueBoolean": true
            } ],
            "timeOfDay": [ "19:00:00" ]
          }
        },
        "route": {
          "coding": [ {
            "system": "urn:oid:2.16.840.1.113883.2.4.4.9",
            "code": "9",
            "display": "Oraal"
          } ]
        },
        "doseAndRate": [ {
          "doseQuantity": {
            "extension": [ {
              "url": "http://hl7.org/fhir/StructureDefinition/iso21090-PQ-translation",
              "valueQuantity": {
                "value": 1,
                "unit": "stuk",
                "system": "urn:oid:2.16.840.1.113883.2.4.4.1.900.2",
                "code": "245"
              }
            } ],
            "value": 1,
            "unit": "stuk",
            "system": "http://unitsofmeasure.org",
            "code": "1"
          }
        } ]
      } ]
    },
    "request": {
      "method": "POST",
      "url": "MedicationDispense"
    }
  }, {
    "fullUrl": "urn:uuid:a0b619fe-6ac5-11ec-0000-020000000000",
    "resource": {
      "resourceType": "MedicationDispense",
      "meta": {
        "profile": [ "http://nictiz.nl/fhir/StructureDefinition/mp-MedicationDispense" ],
        "tag": [ {
          "system": "http://terminology.hl7.org/CodeSystem/common-tags",
          "code": "actionable"
        } ]
      },
      "text": {
        "status": "extensions",
        "div": "<div xmlns=\"http://www.w3.org/1999/xhtml\">\n            <table>\n              <caption>MedicationDispense. Subject: Patient, C. XXX_Coenen. Id: MBH_300_aanvullendeinformatiewensen_MVE (urn:oid:2.16.840.1.113883.2.4.3.11.999.77.373784005.1), Categorie: <span title=\"verstrekken van medicatie (373784005 - SNOMED CT)\">verstrekken van medicatie</span>, Status: voltooid<span style=\"display: block;\">Uitvoerende: Healthcare provider (organization), Apotheek De Gulle Gaper</span>\n              </caption>\n              <tbody>\n                <tr>\n                  <th>Gebaseerd op</th>\n                  <td>relatie naar verstrekkingsverzoek met identificatie: MBH_300_aanvullendeinformatiewensen_VV || 2.16.840.1.113883.2.4.3.11.999.77.52711000146108.1 (Id: MBH_300_aanvullendeinformatiewensen_VV (urn:oid:2.16.840.1.113883.2.4.3.11.999.77.52711000146108.1))</td>\n                </tr>\n                <tr>\n                  <th>Medicatie</th>\n                  <td>BROXIL CAPSULE 500MG</td>\n                </tr>\n                <tr>\n                  <th>Hoeveelheid</th>\n                  <td>40 stuk</td>\n                </tr>\n                <tr>\n                  <th>Datum overhandigd</th>\n                  <td>${DATE, T, D, -5}T09:06:00+02:00</td>\n                </tr>\n              </tbody>\n            </table>\n          </div>"
      },
      "extension": [ {
        "url": "http://nictiz.nl/fhir/StructureDefinition/ext-MedicationDispense.MedicationDispenseAdditionalInformation",
        "valueCodeableConcept": {
          "coding": [ {
            "system": "urn:oid:2.16.840.1.113883.2.4.3.11.60.20.77.5.2.14.2052",
            "code": "1",
            "display": "Aantal bewust gewijzigd"
          } ]
        }
      }, {
        "url": "http://nictiz.nl/fhir/StructureDefinition/ext-PharmaceuticalTreatment.Identifier",
        "valueIdentifier": {
          "system": "urn:oid:2.16.840.1.113883.2.4.3.11.999.77.1.1",
          "value": "MBH_300_aanvullendeinformatiewensen"
        }
      } ],
      "identifier": [ {
        "system": "urn:oid:2.16.840.1.113883.2.4.3.11.999.77.373784005.1",
        "value": "MBH_300_aanvullendeinformatiewensen_MVE"
      } ],
      "status": "completed",
      "category": {
        "coding": [ {
          "system": "http://snomed.info/sct",
          "code": "373784005",
          "display": "verstrekken van medicatie"
        } ]
      },
      "medicationReference": {
        "reference": "urn:uuid:c8dcf604-6b6b-11ec-0000-020000000000",
        "type": "Medication",
        "display": "BROXIL CAPSULE 500MG"
      },
      "subject": {
        "reference": "urn:uuid:a5f60932-6aac-11ec-0000-020000000000",
        "type": "Patient",
        "display": "Patient, C. XXX_Coenen"
      },
      "performer": [ {
        "actor": {
          "reference": "urn:uuid:10079464-6b64-11ec-0000-020000000000",
          "type": "Organization",
          "display": "Healthcare provider (organization), Apotheek De Gulle Gaper"
        }
      } ],
      "authorizingPrescription": [ {
        "type": "MedicationRequest",
        "identifier": {
          "system": "urn:oid:2.16.840.1.113883.2.4.3.11.999.77.52711000146108.1",
          "value": "MBH_300_aanvullendeinformatiewensen_VV"
        },
        "display": "relatie naar verstrekkingsverzoek met identificatie: MBH_300_aanvullendeinformatiewensen_VV || 2.16.840.1.113883.2.4.3.11.999.77.52711000146108.1"
      } ],
      "quantity": {
        "extension": [ {
          "url": "http://hl7.org/fhir/StructureDefinition/iso21090-PQ-translation",
          "valueQuantity": {
            "value": 40,
            "unit": "stuk",
            "system": "urn:oid:2.16.840.1.113883.2.4.4.1.900.2",
            "code": "245"
          }
        } ],
        "value": 40,
        "unit": "stuk",
        "system": "http://unitsofmeasure.org",
        "code": "1"
      },
      "whenHandedOver": "${DATE, T, D, -5}T09:06:00+02:00"
    },
    "request": {
      "method": "POST",
      "url": "MedicationDispense"
    }
  }, {
    "fullUrl": "urn:uuid:a5f60932-6aac-11ec-0000-020000000000",
    "resource": {
      "resourceType": "Patient",
      "meta": {
        "profile": [ "http://nictiz.nl/fhir/StructureDefinition/nl-core-Patient" ]
      },
      "text": {
        "status": "extensions",
        "div": "<div xmlns=\"http://www.w3.org/1999/xhtml\">\n            <div>Id 999900420 (BSN), <span title=\"Naamsamenstelling: Eigennaam\">C. XXX_Coenen</span>, Vrouw, 17 oktober 1963</div>\n          </div>"
      },
      "identifier": [ {
        "system": "http://fhir.nl/fhir/NamingSystem/bsn",
        "value": "999900420"
      } ],
      "name": [ {
        "extension": [ {
          "url": "http://hl7.org/fhir/StructureDefinition/humanname-assembly-order",
          "valueCode": "NL1"
        } ],
        "use": "official",
        "text": "C. XXX_Coenen",
        "family": "XXX_Coenen",
        "_family": {
          "extension": [ {
            "url": "http://hl7.org/fhir/StructureDefinition/humanname-own-name",
            "valueString": "XXX_Coenen"
          } ]
        },
        "given": [ "C." ],
        "_given": [ {
          "extension": [ {
            "url": "http://hl7.org/fhir/StructureDefinition/iso21090-EN-qualifier",
            "valueCode": "IN"
          } ]
        } ]
      } ],
      "gender": "female",
      "_gender": {
        "extension": [ {
          "url": "http://nictiz.nl/fhir/StructureDefinition/ext-CodeSpecification",
          "valueCodeableConcept": {
            "coding": [ {
              "system": "http://terminology.hl7.org/CodeSystem/v3-AdministrativeGender",
              "code": "F",
              "display": "Vrouw"
            } ]
          }
        } ]
      },
      "birthDate": "1963-10-17"
    },
    "request": {
      "method": "POST",
      "url": "Patient"
    }
  }, {
    "fullUrl": "urn:uuid:10079464-6b64-11ec-0000-020000000000",
    "resource": {
      "resourceType": "Organization",
      "meta": {
        "profile": [ "http://nictiz.nl/fhir/StructureDefinition/nl-core-HealthcareProvider-Organization" ]
      },
      "text": {
        "status": "extensions",
        "div": "<div xmlns=\"http://www.w3.org/1999/xhtml\">\n            <table>\n              <caption>Organisatie. Id: 01236578 (URA)</caption>\n              <tbody>\n                <tr>\n                  <th>Naam</th>\n                  <td>Apotheek De Gulle Gaper</td>\n                </tr>\n                <tr>\n                  <th>Adres</th>\n                  <td>Dorpsstraat 12 A, 1234AA Ons Dorp (Werk)</td>\n                </tr>\n              </tbody>\n            </table>\n          </div>"
      },
      "identifier": [ {
        "system": "http://fhir.nl/fhir/NamingSystem/ura",
        "value": "01236578"
      } ],
      "name": "Apotheek De Gulle Gaper",
      "address": [ {
        "extension": [ {
          "url": "http://nictiz.nl/fhir/StructureDefinition/ext-AddressInformation.AddressType",
          "valueCodeableConcept": {
            "coding": [ {
              "system": "http://terminology.hl7.org/CodeSystem/v3-AddressUse",
              "code": "WP",
              "display": "Werkadres"
            } ]
          }
        } ],
        "use": "work",
        "line": [ "Dorpsstraat 12 A" ],
        "_line": [ {
          "extension": [ {
            "url": "http://hl7.org/fhir/StructureDefinition/iso21090-ADXP-streetName",
            "valueString": "Dorpsstraat"
          }, {
            "url": "http://hl7.org/fhir/StructureDefinition/iso21090-ADXP-houseNumber",
            "valueString": "12"
          }, {
            "url": "http://hl7.org/fhir/StructureDefinition/iso21090-ADXP-buildingNumberSuffix",
            "valueString": "A"
          } ]
        } ],
        "city": "Ons Dorp",
        "postalCode": "1234AA"
      } ]
    },
    "request": {
      "method": "POST",
      "url": "Organization"
    }
  }, {
    "fullUrl": "urn:uuid:c8dcf604-6b6b-11ec-0000-020000000000",
    "resource": {
      "resourceType": "Medication",
      "meta": {
        "profile": [ "http://nictiz.nl/fhir/StructureDefinition/mp-PharmaceuticalProduct" ]
      },
      "text": {
        "status": "extensions",
        "div": "<div xmlns=\"http://www.w3.org/1999/xhtml\">\n            <table>\n              <tbody>\n                <tr>\n                  <th>Code</th>\n                  <td>\n                    <span title=\"BROXIL CAPSULE 500MG (425087 - G-Standaard HPK)\">BROXIL CAPSULE 500MG</span>\n                  </td>\n                </tr>\n              </tbody>\n            </table>\n          </div>"
      },
      "code": {
        "coding": [ {
          "system": "urn:oid:2.16.840.1.113883.2.4.4.7",
          "code": "425087",
          "display": "BROXIL CAPSULE 500MG",
          "userSelected": true
        }, {
          "system": "urn:oid:2.16.840.1.113883.2.4.4.10",
          "code": "17205",
          "display": "FENETICILLINE CAPSULE 500MG"
        }, {
          "system": "urn:oid:2.16.840.1.113883.2.4.4.1",
          "code": "41092",
          "display": "FENETICILLINE CAPSULE 500MG"
        } ],
        "text": "BROXIL CAPSULE 500MG"
      }
    },
    "request": {
      "method": "POST",
      "url": "Medication"
    }
  } ]
}