<Bundle xmlns="http://hl7.org/fhir">
  <id value="av-mp-va-tst-6-11-afbouwschema-v30"/>
  <meta>
    <profile value="http://nictiz.nl/fhir/StructureDefinition/mp-MedicationPrescriptionProcessing-Bundle"/>
  </meta>
  <type value="transaction"/>
  <entry>
    <fullUrl value="urn:uuid:4bf47f0d-6b5b-11ec-0000-020000000000"/>
    <resource>
      <MedicationDispense>
        <meta>
          <profile value="http://nictiz.nl/fhir/StructureDefinition/mp-AdministrationAgreement"/>
          <tag>
            <system value="http://terminology.hl7.org/CodeSystem/common-tags"/>
            <code value="actionable"/>
          </tag>
        </meta>
        <text>
          <status value="extensions"/>
          <div xmlns="http://www.w3.org/1999/xhtml">
            <table>
              <caption>MedicationDispense. Subject: Patient, G. XXX_Hemsbergen. Id: MBH_300_afbouwschema_TA (urn:oid:2.16.840.1.113883.2.4.3.11.999.77.422037009.1), Categorie: <span title="toedieningsafspraak (422037009 - SNOMED CT)">toedieningsafspraak</span>, Status: onbekend<span style="display: block;">Uitvoerende: Healthcare provider (organization), Apotheek De Gulle Gaper</span>
              </caption>
              <tbody>
                <tr>
                  <th>Gebaseerd op</th>
                  <td>relatie naar medicatieafspraak met identificatie: MBH_300_afbouwschema_MA || 2.16.840.1.113883.2.4.3.11.999.77.16076005.1 (Id: MBH_300_afbouwschema_MA (urn:oid:2.16.840.1.113883.2.4.3.11.999.77.16076005.1))</td>
                </tr>
                <tr>
                  <th>Medicatie</th>
                  <td>AFFUSINE CREME 20MG/G</td>
                </tr>
                <tr>
                  <th>Doseerinstructie</th>
                  <td>
                    <div>Volgnummer: 1</div>
                    <div>Timing: <div>2 week, eenmalig per dag</div>
                    </div>
                    <div>Toedieningsweg: <span title="cutaan (53 - G-Standaard thesaurus subtabel 0007)">cutaan</span>
                    </div>
                    <div>Dosering: doseAndRate TODO</div>
                  </td>
                </tr>
                <tr>
                  <th>Doseerinstructie</th>
                  <td>
                    <div>Volgnummer: 2</div>
                    <div>Timing: <div>3 week, eenmalig per dag</div>
                    </div>
                    <div>Toedieningsweg: <span title="cutaan (53 - G-Standaard thesaurus subtabel 0007)">cutaan</span>
                    </div>
                    <div>Dosering: doseAndRate TODO</div>
                  </td>
                </tr>
                <tr>
                  <th>Doseerinstructie</th>
                  <td>
                    <div>Volgnummer: 3</div>
                    <div>Timing: <div>6 dag, eenmalig per dag</div>
                    </div>
                    <div>Toedieningsweg: <span title="cutaan (53 - G-Standaard thesaurus subtabel 0007)">cutaan</span>
                    </div>
                    <div>Dosering: doseAndRate TODO</div>
                  </td>
                </tr>
              </tbody>
            </table>
          </div>
        </text>
        <extension url="http://nictiz.nl/fhir/StructureDefinition/ext-RegistrationDateTime">
          <valueDateTime value="${DATE, T, D, +0}T09:40:00+02:00"/>
        </extension>
        <extension url="http://nictiz.nl/fhir/StructureDefinition/ext-RenderedDosageInstruction">
          <valueString value="Vanaf &lt;T+0D{00:00:00}&gt; t/m &lt;T+41D{23:59:59}&gt;, eerst gedurende 2 weken 3gram per dag, dan gedurende 3 weken 2gram per dag, dan gedurende 6 dagen 1gram per dag, dun aanbrengen, cutaan"/>
        </extension>
        <extension url="http://nictiz.nl/fhir/StructureDefinition/ext-TimeInterval.Period">
          <valuePeriod>
            <start value="${DATE, T, D, +0}T00:00:00+02:00"/>
            <end value="${DATE, T, D, +41}T23:59:59+02:00"/>
          </valuePeriod>
        </extension>
        <extension url="http://nictiz.nl/fhir/StructureDefinition/ext-PharmaceuticalTreatment.Identifier">
          <valueIdentifier>
            <system value="urn:oid:2.16.840.1.113883.2.4.3.11.999.77.1.1"/>
            <value value="MBH_300_afbouwschema"/>
          </valueIdentifier>
        </extension>
        <identifier>
          <system value="urn:oid:2.16.840.1.113883.2.4.3.11.999.77.422037009.1"/>
          <value value="MBH_300_afbouwschema_TA"/>
        </identifier>
        <status value="unknown"/>
        <category>
          <coding>
            <system value="http://snomed.info/sct"/>
            <code value="422037009"/>
            <display value="toedieningsafspraak"/>
          </coding>
        </category>
        <medicationReference>
          <reference value="urn:uuid:e90360e9-6b63-11ec-0000-020000000000"/>
          <type value="Medication"/>
          <display value="AFFUSINE CREME 20MG/G"/>
        </medicationReference>
        <subject>
          <reference value="urn:uuid:839f5efe-6b41-11ec-0000-020000000000"/>
          <type value="Patient"/>
          <display value="Patient, G. XXX_Hemsbergen"/>
        </subject>
        <performer>
          <actor>
            <reference value="urn:uuid:10079464-6b64-11ec-0000-020000000000"/>
            <type value="Organization"/>
            <display value="Healthcare provider (organization), Apotheek De Gulle Gaper"/>
          </actor>
        </performer>
        <authorizingPrescription>
          <type value="MedicationRequest"/>
          <identifier>
            <system value="urn:oid:2.16.840.1.113883.2.4.3.11.999.77.16076005.1"/>
            <value value="MBH_300_afbouwschema_MA"/>
          </identifier>
          <display value="relatie naar medicatieafspraak met identificatie: MBH_300_afbouwschema_MA || 2.16.840.1.113883.2.4.3.11.999.77.16076005.1"/>
        </authorizingPrescription>
        <dosageInstruction>
          <sequence value="1"/>
          <timing>
            <repeat>
              <boundsDuration>
                <value value="2"/>
                <unit value="week"/>
                <system value="http://unitsofmeasure.org"/>
                <code value="wk"/>
              </boundsDuration>
              <frequency value="1"/>
              <period value="1"/>
              <periodUnit value="d"/>
            </repeat>
          </timing>
          <route>
            <coding>
              <system value="urn:oid:2.16.840.1.113883.2.4.4.9"/>
              <code value="53"/>
              <display value="cutaan"/>
            </coding>
          </route>
          <doseAndRate>
            <doseQuantity>
              <extension url="http://hl7.org/fhir/StructureDefinition/iso21090-PQ-translation">
                <valueQuantity>
                  <value value="3"/>
                  <unit value="gram"/>
                  <system value="urn:oid:2.16.840.1.113883.2.4.4.1.900.2"/>
                  <code value="215"/>
                </valueQuantity>
              </extension>
              <value value="3"/>
              <unit value="gram"/>
              <system value="http://unitsofmeasure.org"/>
              <code value="g"/>
            </doseQuantity>
          </doseAndRate>
        </dosageInstruction>
        <dosageInstruction>
          <sequence value="2"/>
          <timing>
            <repeat>
              <boundsDuration>
                <value value="3"/>
                <unit value="week"/>
                <system value="http://unitsofmeasure.org"/>
                <code value="wk"/>
              </boundsDuration>
              <frequency value="1"/>
              <period value="1"/>
              <periodUnit value="d"/>
            </repeat>
          </timing>
          <route>
            <coding>
              <system value="urn:oid:2.16.840.1.113883.2.4.4.9"/>
              <code value="53"/>
              <display value="cutaan"/>
            </coding>
          </route>
          <doseAndRate>
            <doseQuantity>
              <extension url="http://hl7.org/fhir/StructureDefinition/iso21090-PQ-translation">
                <valueQuantity>
                  <value value="2"/>
                  <unit value="gram"/>
                  <system value="urn:oid:2.16.840.1.113883.2.4.4.1.900.2"/>
                  <code value="215"/>
                </valueQuantity>
              </extension>
              <value value="2"/>
              <unit value="gram"/>
              <system value="http://unitsofmeasure.org"/>
              <code value="g"/>
            </doseQuantity>
          </doseAndRate>
        </dosageInstruction>
        <dosageInstruction>
          <sequence value="3"/>
          <timing>
            <repeat>
              <boundsDuration>
                <value value="6"/>
                <unit value="dag"/>
                <system value="http://unitsofmeasure.org"/>
                <code value="d"/>
              </boundsDuration>
              <frequency value="1"/>
              <period value="1"/>
              <periodUnit value="d"/>
            </repeat>
          </timing>
          <route>
            <coding>
              <system value="urn:oid:2.16.840.1.113883.2.4.4.9"/>
              <code value="53"/>
              <display value="cutaan"/>
            </coding>
          </route>
          <doseAndRate>
            <doseQuantity>
              <extension url="http://hl7.org/fhir/StructureDefinition/iso21090-PQ-translation">
                <valueQuantity>
                  <value value="1"/>
                  <unit value="gram"/>
                  <system value="urn:oid:2.16.840.1.113883.2.4.4.1.900.2"/>
                  <code value="215"/>
                </valueQuantity>
              </extension>
              <value value="1"/>
              <unit value="gram"/>
              <system value="http://unitsofmeasure.org"/>
              <code value="g"/>
            </doseQuantity>
          </doseAndRate>
        </dosageInstruction>
      </MedicationDispense>
    </resource>
    <request>
      <method value="POST"/>
      <url value="MedicationDispense"/>
    </request>
  </entry>
  <entry>
    <fullUrl value="urn:uuid:490239a7-6b0d-11ec-0000-020000000000"/>
    <resource>
      <MedicationDispense>
        <meta>
          <profile value="http://nictiz.nl/fhir/StructureDefinition/mp-MedicationDispense"/>
          <tag>
            <system value="http://terminology.hl7.org/CodeSystem/common-tags"/>
            <code value="actionable"/>
          </tag>
        </meta>
        <text>
          <status value="extensions"/>
          <div xmlns="http://www.w3.org/1999/xhtml">
            <table>
              <caption>MedicationDispense. Subject: Patient, G. XXX_Hemsbergen. Id: MBH_300_afbouwschema_MVE (urn:oid:2.16.840.1.113883.2.4.3.11.999.77.373784005.1), Categorie: <span title="verstrekken van medicatie (373784005 - SNOMED CT)">verstrekken van medicatie</span>, Status: voltooid<span style="display: block;">Uitvoerende: Healthcare provider (organization), Apotheek De Gulle Gaper</span>
              </caption>
              <tbody>
                <tr>
                  <th>Gebaseerd op</th>
                  <td>relatie naar verstrekkingsverzoek met identificatie: MBH_300_afbouwschema_VV || 2.16.840.1.113883.2.4.3.11.999.77.52711000146108.1 (Id: MBH_300_afbouwschema_VV (urn:oid:2.16.840.1.113883.2.4.3.11.999.77.52711000146108.1))</td>
                </tr>
                <tr>
                  <th>Medicatie</th>
                  <td>AFFUSINE CREME 20MG/G</td>
                </tr>
                <tr>
                  <th>Hoeveelheid</th>
                  <td>90 gram</td>
                </tr>
                <tr>
                  <th>Datum overhandigd</th>
                  <td>${DATE, T, D, +0}T09:40:00+02:00</td>
                </tr>
              </tbody>
            </table>
          </div>
        </text>
        <extension url="http://nictiz.nl/fhir/StructureDefinition/ext-PharmaceuticalTreatment.Identifier">
          <valueIdentifier>
            <system value="urn:oid:2.16.840.1.113883.2.4.3.11.999.77.1.1"/>
            <value value="MBH_300_afbouwschema"/>
          </valueIdentifier>
        </extension>
        <identifier>
          <system value="urn:oid:2.16.840.1.113883.2.4.3.11.999.77.373784005.1"/>
          <value value="MBH_300_afbouwschema_MVE"/>
        </identifier>
        <status value="completed"/>
        <category>
          <coding>
            <system value="http://snomed.info/sct"/>
            <code value="373784005"/>
            <display value="verstrekken van medicatie"/>
          </coding>
        </category>
        <medicationReference>
          <reference value="urn:uuid:e90360e9-6b63-11ec-0000-020000000000"/>
          <type value="Medication"/>
          <display value="AFFUSINE CREME 20MG/G"/>
        </medicationReference>
        <subject>
          <reference value="urn:uuid:839f5efe-6b41-11ec-0000-020000000000"/>
          <type value="Patient"/>
          <display value="Patient, G. XXX_Hemsbergen"/>
        </subject>
        <performer>
          <actor>
            <reference value="urn:uuid:10079464-6b64-11ec-0000-020000000000"/>
            <type value="Organization"/>
            <display value="Healthcare provider (organization), Apotheek De Gulle Gaper"/>
          </actor>
        </performer>
        <authorizingPrescription>
          <type value="MedicationRequest"/>
          <identifier>
            <system value="urn:oid:2.16.840.1.113883.2.4.3.11.999.77.52711000146108.1"/>
            <value value="MBH_300_afbouwschema_VV"/>
          </identifier>
          <display value="relatie naar verstrekkingsverzoek met identificatie: MBH_300_afbouwschema_VV || 2.16.840.1.113883.2.4.3.11.999.77.52711000146108.1"/>
        </authorizingPrescription>
        <quantity>
          <extension url="http://hl7.org/fhir/StructureDefinition/iso21090-PQ-translation">
            <valueQuantity>
              <value value="90"/>
              <unit value="gram"/>
              <system value="urn:oid:2.16.840.1.113883.2.4.4.1.900.2"/>
              <code value="215"/>
            </valueQuantity>
          </extension>
          <value value="90"/>
          <unit value="gram"/>
          <system value="http://unitsofmeasure.org"/>
          <code value="g"/>
        </quantity>
        <whenHandedOver value="${DATE, T, D, +0}T09:40:00+02:00"/>
      </MedicationDispense>
    </resource>
    <request>
      <method value="POST"/>
      <url value="MedicationDispense"/>
    </request>
  </entry>
  <entry>
    <fullUrl value="urn:uuid:839f5efe-6b41-11ec-0000-020000000000"/>
    <resource>
      <Patient>
        <meta>
          <profile value="http://nictiz.nl/fhir/StructureDefinition/nl-core-Patient"/>
        </meta>
        <text>
          <status value="extensions"/>
          <div xmlns="http://www.w3.org/1999/xhtml">
            <div>Id 999900602 (BSN), <span title="Naamsamenstelling: Eigennaam">G. XXX_Hemsbergen</span>, Vrouw, 2 november 1963</div>
          </div>
        </text>
        <identifier>
          <system value="http://fhir.nl/fhir/NamingSystem/bsn"/>
          <value value="999900602"/>
        </identifier>
        <name>
          <extension url="http://hl7.org/fhir/StructureDefinition/humanname-assembly-order">
            <valueCode value="NL1"/>
          </extension>
          <use value="official"/>
          <text value="G. XXX_Hemsbergen"/>
          <family value="XXX_Hemsbergen">
            <extension url="http://hl7.org/fhir/StructureDefinition/humanname-own-name">
              <valueString value="XXX_Hemsbergen"/>
            </extension>
          </family>
          <given value="G.">
            <extension url="http://hl7.org/fhir/StructureDefinition/iso21090-EN-qualifier">
              <valueCode value="IN"/>
            </extension>
          </given>
        </name>
        <gender value="female">
          <extension url="http://nictiz.nl/fhir/StructureDefinition/ext-CodeSpecification">
            <valueCodeableConcept>
              <coding>
                <system value="http://terminology.hl7.org/CodeSystem/v3-AdministrativeGender"/>
                <code value="F"/>
                <display value="Vrouw"/>
              </coding>
            </valueCodeableConcept>
          </extension>
        </gender>
        <birthDate value="1963-11-02"/>
      </Patient>
    </resource>
    <request>
      <method value="POST"/>
      <url value="Patient"/>
    </request>
  </entry>
  <entry>
    <fullUrl value="urn:uuid:10079464-6b64-11ec-0000-020000000000"/>
    <resource>
      <Organization>
        <meta>
          <profile value="http://nictiz.nl/fhir/StructureDefinition/nl-core-HealthcareProvider-Organization"/>
        </meta>
        <text>
          <status value="extensions"/>
          <div xmlns="http://www.w3.org/1999/xhtml">
            <table>
              <caption>Organisatie. Id: 01236578 (URA)</caption>
              <tbody>
                <tr>
                  <th>Naam</th>
                  <td>Apotheek De Gulle Gaper</td>
                </tr>
                <tr>
                  <th>Adres</th>
                  <td>Dorpsstraat 12 A, 1234AA Ons Dorp (Werk)</td>
                </tr>
              </tbody>
            </table>
          </div>
        </text>
        <identifier>
          <system value="http://fhir.nl/fhir/NamingSystem/ura"/>
          <value value="01236578"/>
        </identifier>
        <name value="Apotheek De Gulle Gaper"/>
        <address>
          <extension url="http://nictiz.nl/fhir/StructureDefinition/ext-AddressInformation.AddressType">
            <valueCodeableConcept>
              <coding>
                <system value="http://terminology.hl7.org/CodeSystem/v3-AddressUse"/>
                <code value="WP"/>
                <display value="Werkadres"/>
              </coding>
            </valueCodeableConcept>
          </extension>
          <use value="work"/>
          <line value="Dorpsstraat 12 A">
            <extension url="http://hl7.org/fhir/StructureDefinition/iso21090-ADXP-streetName">
              <valueString value="Dorpsstraat"/>
            </extension>
            <extension url="http://hl7.org/fhir/StructureDefinition/iso21090-ADXP-houseNumber">
              <valueString value="12"/>
            </extension>
            <extension url="http://hl7.org/fhir/StructureDefinition/iso21090-ADXP-buildingNumberSuffix">
              <valueString value="A"/>
            </extension>
          </line>
          <city value="Ons Dorp"/>
          <postalCode value="1234AA"/>
        </address>
      </Organization>
    </resource>
    <request>
      <method value="POST"/>
      <url value="Organization"/>
    </request>
  </entry>
  <entry>
    <fullUrl value="urn:uuid:e90360e9-6b63-11ec-0000-020000000000"/>
    <resource>
      <Medication>
        <meta>
          <profile value="http://nictiz.nl/fhir/StructureDefinition/mp-PharmaceuticalProduct"/>
        </meta>
        <text>
          <status value="extensions"/>
          <div xmlns="http://www.w3.org/1999/xhtml">
            <table>
              <tbody>
                <tr>
                  <th>Code</th>
                  <td>
                    <span title="AFFUSINE CREME 20MG/G (2292556 - G-Standaard HPK)">AFFUSINE CREME 20MG/G</span>
                  </td>
                </tr>
              </tbody>
            </table>
          </div>
        </text>
        <code>
          <coding>
            <system value="urn:oid:2.16.840.1.113883.2.4.4.7"/>
            <code value="2292556"/>
            <display value="AFFUSINE CREME 20MG/G"/>
            <userSelected value="true"/>
          </coding>
          <coding>
            <system value="urn:oid:2.16.840.1.113883.2.4.4.10"/>
            <code value="16705"/>
            <display value="Fusidinezuur creme 20mg/g"/>
          </coding>
          <coding>
            <system value="urn:oid:2.16.840.1.113883.2.4.4.1"/>
            <code value="73466"/>
            <display value="Fusidinezuur creme 20mg/g"/>
          </coding>
          <text value="AFFUSINE CREME 20MG/G"/>
        </code>
      </Medication>
    </resource>
    <request>
      <method value="POST"/>
      <url value="Medication"/>
    </request>
  </entry>
</Bundle>
