<Bundle xmlns="http://hl7.org/fhir">
  <id value="av-mp-va-tst-6-4-zonder-keerdosis-v30"/>
  <meta>
    <profile value="http://nictiz.nl/fhir/StructureDefinition/mp-MedicationPrescriptionProcessing-Bundle"/>
  </meta>
  <type value="transaction"/>
  <entry>
    <fullUrl value="urn:uuid:075e4d3e-6b45-11ec-0000-020000000000"/>
    <resource>
      <MedicationDispense>
        <meta>
          <profile value="http://nictiz.nl/fhir/StructureDefinition/mp-AdministrationAgreement"/>
          <tag>
            <system value="http://terminology.hl7.org/CodeSystem/common-tags"/>
            <code value="actionable"/>
          </tag>
        </meta>
        <text>
          <status value="extensions"/>
          <div xmlns="http://www.w3.org/1999/xhtml">
            <table>
              <caption>MedicationDispense. Subject: Patient, G. XXX_Hemsbergen. Id: MBH_300_zonderkeerdosis_TA (urn:oid:2.16.840.1.113883.2.4.3.11.999.77.422037009.1), Categorie: <span title="toedieningsafspraak (422037009 - SNOMED CT)">toedieningsafspraak</span>, Status: onbekend<span style="display: block;">Uitvoerende: Healthcare provider (organization), Apotheek De Gulle Gaper</span>
              </caption>
              <tbody>
                <tr>
                  <th>Gebaseerd op</th>
                  <td>relatie naar medicatieafspraak met identificatie: MBH_300_zonderkeerdosis_MA || 2.16.840.1.113883.2.4.3.11.999.77.16076005.1 (Id: MBH_300_zonderkeerdosis_MA (urn:oid:2.16.840.1.113883.2.4.3.11.999.77.16076005.1))</td>
                </tr>
                <tr>
                  <th>Medicatie</th>
                  <td>CETOMACROGOLCREME MET 10% VASELINE FAGRON</td>
                </tr>
                <tr>
                  <th>Doseerinstructie</th>
                  <td>
                    <div>Instructie: <span title="aanbrengen (1018 - nhg-tabel-25-gebruiksvoorschrift#aanvullend-numeriek)">aanbrengen</span>
                    </div>
                    <div>Timing: <div>3 maal per dag</div>
                    </div>
                    <div>Toedieningsweg: <span title="cutaan (53 - G-Standaard thesaurus subtabel 0007)">cutaan</span>
                    </div>
                  </td>
                </tr>
              </tbody>
            </table>
          </div>
        </text>
        <extension url="http://nictiz.nl/fhir/StructureDefinition/ext-RegistrationDateTime">
          <valueDateTime value="${DATE, T, D, +0}T09:12:00+02:00"/>
        </extension>
        <extension url="http://nictiz.nl/fhir/StructureDefinition/ext-RenderedDosageInstruction">
          <valueString value="Vanaf &lt;T+0D{00:00:00}&gt; t/m &lt;T+28D{23:59:59}&gt;, 3 maal per dag aanbrengen, cutaan"/>
        </extension>
        <extension url="http://nictiz.nl/fhir/StructureDefinition/ext-TimeInterval.Period">
          <valuePeriod>
            <start value="${DATE, T, D, +0}T00:00:00+02:00"/>
            <end value="${DATE, T, D, +28}T23:59:59+02:00"/>
          </valuePeriod>
        </extension>
        <extension url="http://nictiz.nl/fhir/StructureDefinition/ext-PharmaceuticalTreatment.Identifier">
          <valueIdentifier>
            <system value="urn:oid:2.16.840.1.113883.2.4.3.11.999.77.1.1"/>
            <value value="MBH_300_zonderkeerdosis"/>
          </valueIdentifier>
        </extension>
        <identifier>
          <system value="urn:oid:2.16.840.1.113883.2.4.3.11.999.77.422037009.1"/>
          <value value="MBH_300_zonderkeerdosis_TA"/>
        </identifier>
        <status value="unknown"/>
        <category>
          <coding>
            <system value="http://snomed.info/sct"/>
            <code value="422037009"/>
            <display value="toedieningsafspraak"/>
          </coding>
        </category>
        <medicationReference>
          <reference value="urn:uuid:e046bd1d-6a9b-11ec-0000-020000000000"/>
          <type value="Medication"/>
          <display value="CETOMACROGOLCREME MET 10% VASELINE FAGRON"/>
        </medicationReference>
        <subject>
          <reference value="urn:uuid:839f5efe-6b41-11ec-0000-020000000000"/>
          <type value="Patient"/>
          <display value="Patient, G. XXX_Hemsbergen"/>
        </subject>
        <performer>
          <actor>
            <reference value="urn:uuid:10079464-6b64-11ec-0000-020000000000"/>
            <type value="Organization"/>
            <display value="Healthcare provider (organization), Apotheek De Gulle Gaper"/>
          </actor>
        </performer>
        <authorizingPrescription>
          <type value="MedicationRequest"/>
          <identifier>
            <system value="urn:oid:2.16.840.1.113883.2.4.3.11.999.77.16076005.1"/>
            <value value="MBH_300_zonderkeerdosis_MA"/>
          </identifier>
          <display value="relatie naar medicatieafspraak met identificatie: MBH_300_zonderkeerdosis_MA || 2.16.840.1.113883.2.4.3.11.999.77.16076005.1"/>
        </authorizingPrescription>
        <dosageInstruction>
          <additionalInstruction>
            <coding>
              <system value="https://referentiemodel.nhg.org/tabellen/nhg-tabel-25-gebruiksvoorschrift#aanvullend-numeriek"/>
              <code value="1018"/>
              <display value="aanbrengen"/>
            </coding>
          </additionalInstruction>
          <timing>
            <repeat>
              <frequency value="3"/>
              <period value="1"/>
              <periodUnit value="d"/>
            </repeat>
          </timing>
          <route>
            <coding>
              <system value="urn:oid:2.16.840.1.113883.2.4.4.9"/>
              <code value="53"/>
              <display value="cutaan"/>
            </coding>
          </route>
        </dosageInstruction>
      </MedicationDispense>
    </resource>
    <request>
      <method value="POST"/>
      <url value="MedicationDispense"/>
    </request>
  </entry>
  <entry>
    <fullUrl value="urn:uuid:e4b147a7-6b36-11ec-0000-020000000000"/>
    <resource>
      <MedicationDispense>
        <meta>
          <profile value="http://nictiz.nl/fhir/StructureDefinition/mp-MedicationDispense"/>
          <tag>
            <system value="http://terminology.hl7.org/CodeSystem/common-tags"/>
            <code value="actionable"/>
          </tag>
        </meta>
        <text>
          <status value="extensions"/>
          <div xmlns="http://www.w3.org/1999/xhtml">
            <table>
              <caption>MedicationDispense. Subject: Patient, G. XXX_Hemsbergen. Id: MBH_300_zonderkeerdosis_MVE (urn:oid:2.16.840.1.113883.2.4.3.11.999.77.373784005.1), Categorie: <span title="verstrekken van medicatie (373784005 - SNOMED CT)">verstrekken van medicatie</span>, Status: voltooid<span style="display: block;">Uitvoerende: Healthcare provider (organization), Apotheek De Gulle Gaper</span>
              </caption>
              <tbody>
                <tr>
                  <th>Gebaseerd op</th>
                  <td>relatie naar verstrekkingsverzoek met identificatie: MBH_300_zonderkeerdosis_VV || 2.16.840.1.113883.2.4.3.11.999.77.52711000146108.1 (Id: MBH_300_zonderkeerdosis_VV (urn:oid:2.16.840.1.113883.2.4.3.11.999.77.52711000146108.1))</td>
                </tr>
                <tr>
                  <th>Medicatie</th>
                  <td>CETOMACROGOLCREME MET 10% VASELINE FAGRON</td>
                </tr>
                <tr>
                  <th>Hoeveelheid</th>
                  <td>100 stuk</td>
                </tr>
                <tr>
                  <th>Datum overhandigd</th>
                  <td>${DATE, T, D, +0}T09:12:00+02:00</td>
                </tr>
              </tbody>
            </table>
          </div>
        </text>
        <extension url="http://nictiz.nl/fhir/StructureDefinition/ext-PharmaceuticalTreatment.Identifier">
          <valueIdentifier>
            <system value="urn:oid:2.16.840.1.113883.2.4.3.11.999.77.1.1"/>
            <value value="MBH_300_zonderkeerdosis"/>
          </valueIdentifier>
        </extension>
        <identifier>
          <system value="urn:oid:2.16.840.1.113883.2.4.3.11.999.77.373784005.1"/>
          <value value="MBH_300_zonderkeerdosis_MVE"/>
        </identifier>
        <status value="completed"/>
        <category>
          <coding>
            <system value="http://snomed.info/sct"/>
            <code value="373784005"/>
            <display value="verstrekken van medicatie"/>
          </coding>
        </category>
        <medicationReference>
          <reference value="urn:uuid:e046bd1d-6a9b-11ec-0000-020000000000"/>
          <type value="Medication"/>
          <display value="CETOMACROGOLCREME MET 10% VASELINE FAGRON"/>
        </medicationReference>
        <subject>
          <reference value="urn:uuid:839f5efe-6b41-11ec-0000-020000000000"/>
          <type value="Patient"/>
          <display value="Patient, G. XXX_Hemsbergen"/>
        </subject>
        <performer>
          <actor>
            <reference value="urn:uuid:10079464-6b64-11ec-0000-020000000000"/>
            <type value="Organization"/>
            <display value="Healthcare provider (organization), Apotheek De Gulle Gaper"/>
          </actor>
        </performer>
        <authorizingPrescription>
          <type value="MedicationRequest"/>
          <identifier>
            <system value="urn:oid:2.16.840.1.113883.2.4.3.11.999.77.52711000146108.1"/>
            <value value="MBH_300_zonderkeerdosis_VV"/>
          </identifier>
          <display value="relatie naar verstrekkingsverzoek met identificatie: MBH_300_zonderkeerdosis_VV || 2.16.840.1.113883.2.4.3.11.999.77.52711000146108.1"/>
        </authorizingPrescription>
        <quantity>
          <extension url="http://hl7.org/fhir/StructureDefinition/iso21090-PQ-translation">
            <valueQuantity>
              <value value="100"/>
              <unit value="stuk"/>
              <system value="urn:oid:2.16.840.1.113883.2.4.4.1.900.2"/>
              <code value="215"/>
            </valueQuantity>
          </extension>
          <value value="100"/>
          <unit value="stuk"/>
          <system value="http://unitsofmeasure.org"/>
          <code value="g"/>
        </quantity>
        <whenHandedOver value="${DATE, T, D, +0}T09:12:00+02:00"/>
      </MedicationDispense>
    </resource>
    <request>
      <method value="POST"/>
      <url value="MedicationDispense"/>
    </request>
  </entry>
  <entry>
    <fullUrl value="urn:uuid:839f5efe-6b41-11ec-0000-020000000000"/>
    <resource>
      <Patient>
        <meta>
          <profile value="http://nictiz.nl/fhir/StructureDefinition/nl-core-Patient"/>
        </meta>
        <text>
          <status value="extensions"/>
          <div xmlns="http://www.w3.org/1999/xhtml">
            <div>Id 999900602 (BSN), <span title="Naamsamenstelling: Eigennaam">G. XXX_Hemsbergen</span>, Vrouw, 2 november 1963</div>
          </div>
        </text>
        <identifier>
          <system value="http://fhir.nl/fhir/NamingSystem/bsn"/>
          <value value="999900602"/>
        </identifier>
        <name>
          <extension url="http://hl7.org/fhir/StructureDefinition/humanname-assembly-order">
            <valueCode value="NL1"/>
          </extension>
          <use value="official"/>
          <text value="G. XXX_Hemsbergen"/>
          <family value="XXX_Hemsbergen">
            <extension url="http://hl7.org/fhir/StructureDefinition/humanname-own-name">
              <valueString value="XXX_Hemsbergen"/>
            </extension>
          </family>
          <given value="G.">
            <extension url="http://hl7.org/fhir/StructureDefinition/iso21090-EN-qualifier">
              <valueCode value="IN"/>
            </extension>
          </given>
        </name>
        <gender value="female">
          <extension url="http://nictiz.nl/fhir/StructureDefinition/ext-CodeSpecification">
            <valueCodeableConcept>
              <coding>
                <system value="http://terminology.hl7.org/CodeSystem/v3-AdministrativeGender"/>
                <code value="F"/>
                <display value="Vrouw"/>
              </coding>
            </valueCodeableConcept>
          </extension>
        </gender>
        <birthDate value="1963-11-02"/>
      </Patient>
    </resource>
    <request>
      <method value="POST"/>
      <url value="Patient"/>
    </request>
  </entry>
  <entry>
    <fullUrl value="urn:uuid:10079464-6b64-11ec-0000-020000000000"/>
    <resource>
      <Organization>
        <meta>
          <profile value="http://nictiz.nl/fhir/StructureDefinition/nl-core-HealthcareProvider-Organization"/>
        </meta>
        <text>
          <status value="extensions"/>
          <div xmlns="http://www.w3.org/1999/xhtml">
            <table>
              <caption>Organisatie. Id: 01236578 (URA)</caption>
              <tbody>
                <tr>
                  <th>Naam</th>
                  <td>Apotheek De Gulle Gaper</td>
                </tr>
                <tr>
                  <th>Adres</th>
                  <td>Dorpsstraat 12 A, 1234AA Ons Dorp (Werk)</td>
                </tr>
              </tbody>
            </table>
          </div>
        </text>
        <identifier>
          <system value="http://fhir.nl/fhir/NamingSystem/ura"/>
          <value value="01236578"/>
        </identifier>
        <name value="Apotheek De Gulle Gaper"/>
        <address>
          <extension url="http://nictiz.nl/fhir/StructureDefinition/ext-AddressInformation.AddressType">
            <valueCodeableConcept>
              <coding>
                <system value="http://terminology.hl7.org/CodeSystem/v3-AddressUse"/>
                <code value="WP"/>
                <display value="Werkadres"/>
              </coding>
            </valueCodeableConcept>
          </extension>
          <use value="work"/>
          <line value="Dorpsstraat 12 A">
            <extension url="http://hl7.org/fhir/StructureDefinition/iso21090-ADXP-streetName">
              <valueString value="Dorpsstraat"/>
            </extension>
            <extension url="http://hl7.org/fhir/StructureDefinition/iso21090-ADXP-houseNumber">
              <valueString value="12"/>
            </extension>
            <extension url="http://hl7.org/fhir/StructureDefinition/iso21090-ADXP-buildingNumberSuffix">
              <valueString value="A"/>
            </extension>
          </line>
          <city value="Ons Dorp"/>
          <postalCode value="1234AA"/>
        </address>
      </Organization>
    </resource>
    <request>
      <method value="POST"/>
      <url value="Organization"/>
    </request>
  </entry>
  <entry>
    <fullUrl value="urn:uuid:e046bd1d-6a9b-11ec-0000-020000000000"/>
    <resource>
      <Medication>
        <meta>
          <profile value="http://nictiz.nl/fhir/StructureDefinition/mp-PharmaceuticalProduct"/>
        </meta>
        <text>
          <status value="extensions"/>
          <div xmlns="http://www.w3.org/1999/xhtml">
            <table>
              <tbody>
                <tr>
                  <th>Code</th>
                  <td>
                    <span title="CETOMACROGOLCREME MET 10% VASELINE FAGRON (1205943 - G-Standaard HPK)">CETOMACROGOLCREME MET 10% VASELINE FAGRON</span>
                  </td>
                </tr>
              </tbody>
            </table>
          </div>
        </text>
        <code>
          <coding>
            <system value="urn:oid:2.16.840.1.113883.2.4.4.7"/>
            <code value="1205943"/>
            <display value="CETOMACROGOLCREME MET 10% VASELINE FAGRON"/>
            <userSelected value="true"/>
          </coding>
          <coding>
            <system value="urn:oid:2.16.840.1.113883.2.4.4.10"/>
            <code value="92789"/>
            <display value="Cetomacrogolcreme met vaseline 10%"/>
          </coding>
          <coding>
            <system value="urn:oid:2.16.840.1.113883.2.4.4.1"/>
            <code value="133329"/>
            <display value="Cetomacrogolcreme met vaseline 10%"/>
          </coding>
          <text value="CETOMACROGOLCREME MET 10% VASELINE FAGRON"/>
        </code>
      </Medication>
    </resource>
    <request>
      <method value="POST"/>
      <url value="Medication"/>
    </request>
  </entry>
</Bundle>
