{
  "resourceType": "Bundle",
  "id": "mg-mp-mg-tst-MGB-Scenarioset5-v30",
  "type": "transaction",
  "entry": [ {
    "fullUrl": "urn:uuid:e9dd4e16-6a95-11ec-0000-020000000000",
    "resource": {
      "resourceType": "MedicationStatement",
      "meta": {
        "profile": [ "http://nictiz.nl/fhir/StructureDefinition/mp-MedicationUse2" ]
      },
      "text": {
        "status": "extensions",
        "div": "<div xmlns=\"http://www.w3.org/1999/xhtml\">\n            <table>\n              <caption>MedicationStatement. Subject: Patient, N. XXX_Rozendal. Id: MBH_300_volgens_afspraak_MGB (urn:oid:2.16.840.1.113883.2.4.3.11.999.77.6.1), Categorie: <span title=\"bevinding betreffende gedrag met betrekking tot medicatieregime (422979000 - SNOMED CT)\">bevinding betreffende gedrag met betrekking tot medicatieregime</span>, Status: actief</caption>\n              <tbody>\n                <tr>\n                  <th>Medicatie</th>\n                  <td>PRADAXA CAPSULE 110MG</td>\n                </tr>\n                <tr>\n                  <th>Datum/tijd</th>\n                  <td>Vanaf ${DATE, T, D, -20}T00:00:00+02:00</td>\n                </tr>\n                <tr>\n                  <th>Informant</th>\n                  <td>${DATE, T, D, -20}T18:20:05+02:00</td>\n                </tr>\n                <tr>\n                  <th>Ondersteunende informatie</th>\n                  <td>relatie naar toedieningsafspraak (Id: MBH_300_volgens_afspraak_TA (urn:oid:2.16.840.1.113883.2.4.3.11.999.77.422037009.1))</td>\n                </tr>\n                <tr>\n                  <th>Dosering</th>\n                  <td>\n                    <div>Timing: <div>eenmalig per dag</div>\n                    </div>\n                    <div>Toedieningsweg: <span title=\"oraal (9 - G-Standaard thesaurus subtabel 0007)\">oraal</span>\n                    </div>\n                    <div>Dosering: doseAndRate TODO</div>\n                  </td>\n                </tr>\n              </tbody>\n            </table>\n          </div>"
      },
      "extension": [ {
        "url": "http://nictiz.nl/fhir/StructureDefinition/ext-RenderedDosageInstruction",
        "valueString": "Vanaf T - 20 dagen, gedurende 10 dagen, 1 maal per dag 2 stuks, oraal"
      }, {
        "url": "http://nictiz.nl/fhir/StructureDefinition/ext-MedicationUse2.Prescriber",
        "valueReference": {
          "reference": "urn:uuid:d38b8558-6a95-11ec-0000-020000000000",
          "type": "PractitionerRole",
          "display": "Healthcare professional (role), Peter van Pulver, Huisartsen, niet nader gespecificeerd, Huisartsenpraktijk Pulver & Partners"
        }
      }, {
        "url": "http://nictiz.nl/fhir/StructureDefinition/ext-AsAgreedIndicator",
        "valueBoolean": true
      }, {
        "url": "http://nictiz.nl/fhir/StructureDefinition/ext-PharmaceuticalTreatment.Identifier",
        "valueIdentifier": {
          "system": "urn:oid:2.16.840.1.113883.2.4.3.11.999.77.1.1",
          "value": "MBH_300_volgens_afspraak"
        }
      }, {
        "url": "http://nictiz.nl/fhir/StructureDefinition/ext-MedicationUse2.Author",
        "valueReference": {
          "reference": "urn:uuid:e6b2d578-6a95-11ec-0000-020000000000",
          "type": "Patient",
          "display": "Patient, N. XXX_Rozendal"
        }
      } ],
      "identifier": [ {
        "system": "urn:oid:2.16.840.1.113883.2.4.3.11.999.77.6.1",
        "value": "MBH_300_volgens_afspraak_MGB"
      } ],
      "status": "active",
      "category": {
        "coding": [ {
          "system": "http://snomed.info/sct",
          "code": "422979000",
          "display": "bevinding betreffende gedrag met betrekking tot medicatieregime"
        } ]
      },
      "medicationReference": {
        "reference": "urn:uuid:d4af751d-6a95-11ec-0000-020000000000",
        "type": "Medication",
        "display": "PRADAXA CAPSULE 110MG"
      },
      "subject": {
        "reference": "urn:uuid:e6b2d578-6a95-11ec-0000-020000000000",
        "type": "Patient",
        "display": "Patient, N. XXX_Rozendal"
      },
      "effectivePeriod": {
        "extension": [ {
          "url": "http://nictiz.nl/fhir/StructureDefinition/ext-TimeInterval.Duration",
          "valueDuration": {
            "value": 10,
            "unit": "dag",
            "system": "http://unitsofmeasure.org",
            "code": "d"
          }
        } ],
        "start": "${DATE, T, D, -20}T00:00:00+02:00"
      },
      "dateAsserted": "${DATE, T, D, -20}T18:20:05+02:00",
      "derivedFrom": [ {
        "extension": [ {
          "url": "http://nictiz.nl/fhir/StructureDefinition/ext-ResourceCategory",
          "valueCodeableConcept": {
            "coding": [ {
              "system": "http://snomed.info/sct",
              "code": "422037009",
              "display": "toedieningsafspraak"
            } ]
          }
        } ],
        "identifier": {
          "system": "urn:oid:2.16.840.1.113883.2.4.3.11.999.77.422037009.1",
          "value": "MBH_300_volgens_afspraak_TA"
        },
        "display": "relatie naar toedieningsafspraak"
      } ],
      "dosage": [ {
        "timing": {
          "repeat": {
            "frequency": 1,
            "period": 1,
            "periodUnit": "d"
          }
        },
        "route": {
          "coding": [ {
            "system": "urn:oid:2.16.840.1.113883.2.4.4.9",
            "code": "9",
            "display": "oraal"
          } ]
        },
        "doseAndRate": [ {
          "doseQuantity": {
            "extension": [ {
              "url": "http://hl7.org/fhir/StructureDefinition/iso21090-PQ-translation",
              "valueQuantity": {
                "value": 2,
                "unit": "stuk",
                "system": "urn:oid:2.16.840.1.113883.2.4.4.1.900.2",
                "code": "245"
              }
            } ],
            "value": 2,
            "unit": "stuk",
            "system": "http://unitsofmeasure.org",
            "code": "1"
          }
        } ]
      } ]
    },
    "request": {
      "method": "POST",
      "url": "MedicationStatement"
    }
  }, {
    "fullUrl": "urn:uuid:fd33acbd-6a95-11ec-0000-020000000000",
    "resource": {
      "resourceType": "MedicationStatement",
      "meta": {
        "profile": [ "http://nictiz.nl/fhir/StructureDefinition/mp-MedicationUse2" ]
      },
      "text": {
        "status": "extensions",
        "div": "<div xmlns=\"http://www.w3.org/1999/xhtml\">\n            <table>\n              <caption>MedicationStatement. Subject: Patient, N. XXX_Rozendal. Id: MBH_300_niet_volgens_afspraak_MGB (urn:oid:2.16.840.1.113883.2.4.3.11.999.77.6.1), Categorie: <span title=\"bevinding betreffende gedrag met betrekking tot medicatieregime (422979000 - SNOMED CT)\">bevinding betreffende gedrag met betrekking tot medicatieregime</span>, Status: actief</caption>\n              <tbody>\n                <tr>\n                  <th>Medicatie</th>\n                  <td>SIMVASTATINE TABLET FO 20MG</td>\n                </tr>\n                <tr>\n                  <th>Datum/tijd</th>\n                  <td>${DATE, T, D, -20}T00:00:00+02:00 - ${DATE, T, D, -20}T23:59:59+02:00</td>\n                </tr>\n                <tr>\n                  <th>Informant</th>\n                  <td>${DATE, T, D, -20}T10:00:00+02:00</td>\n                </tr>\n                <tr>\n                  <th>Ondersteunende informatie</th>\n                  <td>relatie naar medicatieafspraak (Id: MBH_300_niet_volgens_afspraak_MA (urn:oid:2.16.840.1.113883.2.4.3.11.999.77.16076005.1))</td>\n                </tr>\n                <tr>\n                  <th>Dosering</th>\n                  <td>\n                    <div>Timing: <div>eenmalig per dag</div>\n                    </div>\n                    <div>Toedieningsweg: <span title=\"oraal (9 - G-Standaard thesaurus subtabel 0007)\">oraal</span>\n                    </div>\n                    <div>Dosering: doseAndRate TODO</div>\n                  </td>\n                </tr>\n              </tbody>\n            </table>\n          </div>"
      },
      "extension": [ {
        "url": "http://nictiz.nl/fhir/StructureDefinition/ext-RenderedDosageInstruction",
        "valueString": "Vanaf T - 30 dagen, tot en met T - 20 dagen, 1 maal per dag 1 stuk, oraal"
      }, {
        "url": "http://nictiz.nl/fhir/StructureDefinition/ext-MedicationUse2.Prescriber",
        "valueReference": {
          "reference": "urn:uuid:d38b8558-6a95-11ec-0000-020000000000",
          "type": "PractitionerRole",
          "display": "Healthcare professional (role), Peter van Pulver, Huisartsen, niet nader gespecificeerd, Huisartsenpraktijk Pulver & Partners"
        }
      }, {
        "url": "http://nictiz.nl/fhir/StructureDefinition/ext-AsAgreedIndicator",
        "valueBoolean": false
      }, {
        "url": "http://nictiz.nl/fhir/StructureDefinition/ext-PharmaceuticalTreatment.Identifier",
        "valueIdentifier": {
          "system": "urn:oid:2.16.840.1.113883.2.4.3.11.999.77.1.1",
          "value": "MBH_300_niet_volgens_afspraak"
        }
      }, {
        "url": "http://nictiz.nl/fhir/StructureDefinition/ext-MedicationUse2.Author",
        "valueReference": {
          "reference": "urn:uuid:e6b2d578-6a95-11ec-0000-020000000000",
          "type": "Patient",
          "display": "Patient, N. XXX_Rozendal"
        }
      } ],
      "identifier": [ {
        "system": "urn:oid:2.16.840.1.113883.2.4.3.11.999.77.6.1",
        "value": "MBH_300_niet_volgens_afspraak_MGB"
      } ],
      "status": "active",
      "category": {
        "coding": [ {
          "system": "http://snomed.info/sct",
          "code": "422979000",
          "display": "bevinding betreffende gedrag met betrekking tot medicatieregime"
        } ]
      },
      "medicationReference": {
        "reference": "urn:uuid:ee65bf04-6a95-11ec-0000-020000000000",
        "type": "Medication",
        "display": "SIMVASTATINE TABLET FO 20MG"
      },
      "subject": {
        "reference": "urn:uuid:e6b2d578-6a95-11ec-0000-020000000000",
        "type": "Patient",
        "display": "Patient, N. XXX_Rozendal"
      },
      "effectivePeriod": {
        "start": "${DATE, T, D, -20}T00:00:00+02:00",
        "end": "${DATE, T, D, -20}T23:59:59+02:00"
      },
      "dateAsserted": "${DATE, T, D, -20}T10:00:00+02:00",
      "derivedFrom": [ {
        "extension": [ {
          "url": "http://nictiz.nl/fhir/StructureDefinition/ext-ResourceCategory",
          "valueCodeableConcept": {
            "coding": [ {
              "system": "http://snomed.info/sct",
              "code": "33633005",
              "display": "voorschrijven"
            } ]
          }
        } ],
        "identifier": {
          "system": "urn:oid:2.16.840.1.113883.2.4.3.11.999.77.16076005.1",
          "value": "MBH_300_niet_volgens_afspraak_MA"
        },
        "display": "relatie naar medicatieafspraak"
      } ],
      "dosage": [ {
        "timing": {
          "repeat": {
            "frequency": 1,
            "period": 1,
            "periodUnit": "d"
          }
        },
        "route": {
          "coding": [ {
            "system": "urn:oid:2.16.840.1.113883.2.4.4.9",
            "code": "9",
            "display": "oraal"
          } ]
        },
        "doseAndRate": [ {
          "doseQuantity": {
            "extension": [ {
              "url": "http://hl7.org/fhir/StructureDefinition/iso21090-PQ-translation",
              "valueQuantity": {
                "value": 1,
                "unit": "stuk",
                "system": "urn:oid:2.16.840.1.113883.2.4.4.1.900.2",
                "code": "245"
              }
            } ],
            "value": 1,
            "unit": "stuk",
            "system": "http://unitsofmeasure.org",
            "code": "1"
          }
        } ]
      } ]
    },
    "request": {
      "method": "POST",
      "url": "MedicationStatement"
    }
  }, {
    "fullUrl": "urn:uuid:ea355e67-6a95-11ec-0000-020000000000",
    "resource": {
      "resourceType": "MedicationStatement",
      "meta": {
        "profile": [ "http://nictiz.nl/fhir/StructureDefinition/mp-MedicationUse2" ]
      },
      "text": {
        "status": "extensions",
        "div": "<div xmlns=\"http://www.w3.org/1999/xhtml\">\n            <table>\n              <caption>MedicationStatement. Subject: Patient, N. XXX_Rozendal. Id: MBH_300_geen_gebruik_niet_volgens_afspraak_MGB (urn:oid:2.16.840.1.113883.2.4.3.11.999.77.6.1), Categorie: <span title=\"bevinding betreffende gedrag met betrekking tot medicatieregime (422979000 - SNOMED CT)\">bevinding betreffende gedrag met betrekking tot medicatieregime</span>, Status: not-taken</caption>\n              <tbody>\n                <tr>\n                  <th>Medicatie</th>\n                  <td>HYDROCHLOORTHIAZIDE APOTEX TABLET 12,5MG</td>\n                </tr>\n                <tr>\n                  <th>Datum/tijd</th>\n                  <td>${DATE, T, D, -20}T00:00:00+02:00 - ${DATE, T, D, -20}T23:59:50+02:00</td>\n                </tr>\n                <tr>\n                  <th>Informant</th>\n                  <td>${DATE, T, D, -20}T08:00:00+02:00 - Patient, N. XXX_Rozendal</td>\n                </tr>\n                <tr>\n                  <th>Ondersteunende informatie</th>\n                  <td>relatie naar toedieningsafspraak (Id: MBH_300_geen_gebruik_niet_volgens_afspraak_TA (urn:oid:2.16.840.1.113883.2.4.3.11.999.77.422037009.1))</td>\n                </tr>\n              </tbody>\n            </table>\n          </div>"
      },
      "extension": [ {
        "url": "http://nictiz.nl/fhir/StructureDefinition/ext-RenderedDosageInstruction",
        "valueString": "Vanaf T - 6 dagen, tot en met T - 5 dagen, geneesmiddel niet in gebruik, stopgezet"
      }, {
        "url": "http://nictiz.nl/fhir/StructureDefinition/ext-MedicationUse2.Prescriber",
        "valueReference": {
          "reference": "urn:uuid:d38b8558-6a95-11ec-0000-020000000000",
          "type": "PractitionerRole",
          "display": "Healthcare professional (role), Peter van Pulver, Huisartsen, niet nader gespecificeerd, Huisartsenpraktijk Pulver & Partners"
        }
      }, {
        "url": "http://nictiz.nl/fhir/StructureDefinition/ext-AsAgreedIndicator",
        "valueBoolean": false
      }, {
        "url": "http://nictiz.nl/fhir/StructureDefinition/ext-PharmaceuticalTreatment.Identifier",
        "valueIdentifier": {
          "system": "urn:oid:2.16.840.1.113883.2.4.3.11.999.77.1.1",
          "value": "MBH_300_geen_gebruik_niet_volgens_afspraak"
        }
      }, {
        "url": "http://nictiz.nl/fhir/StructureDefinition/ext-MedicationUse2.Author",
        "valueReference": {
          "reference": "urn:uuid:d38b8558-6a95-11ec-0000-020000000000",
          "type": "PractitionerRole",
          "display": "Healthcare professional (role), Peter van Pulver, Huisartsen, niet nader gespecificeerd, Huisartsenpraktijk Pulver & Partners"
        }
      } ],
      "modifierExtension": [ {
        "url": "http://nictiz.nl/fhir/StructureDefinition/ext-StopType",
        "valueCodeableConcept": {
          "coding": [ {
            "system": "http://snomed.info/sct",
            "code": "410546004",
            "display": "stopgezet"
          } ]
        }
      } ],
      "identifier": [ {
        "system": "urn:oid:2.16.840.1.113883.2.4.3.11.999.77.6.1",
        "value": "MBH_300_geen_gebruik_niet_volgens_afspraak_MGB"
      } ],
      "status": "not-taken",
      "category": {
        "coding": [ {
          "system": "http://snomed.info/sct",
          "code": "422979000",
          "display": "bevinding betreffende gedrag met betrekking tot medicatieregime"
        } ]
      },
      "medicationReference": {
        "reference": "urn:uuid:fb9c391d-6a95-11ec-0000-020000000000",
        "type": "Medication",
        "display": "HYDROCHLOORTHIAZIDE APOTEX TABLET 12,5MG"
      },
      "subject": {
        "reference": "urn:uuid:e6b2d578-6a95-11ec-0000-020000000000",
        "type": "Patient",
        "display": "Patient, N. XXX_Rozendal"
      },
      "effectivePeriod": {
        "start": "${DATE, T, D, -20}T00:00:00+02:00",
        "end": "${DATE, T, D, -20}T23:59:50+02:00"
      },
      "dateAsserted": "${DATE, T, D, -20}T08:00:00+02:00",
      "informationSource": {
        "reference": "urn:uuid:e6b2d578-6a95-11ec-0000-020000000000",
        "type": "Patient",
        "display": "Patient, N. XXX_Rozendal"
      },
      "derivedFrom": [ {
        "extension": [ {
          "url": "http://nictiz.nl/fhir/StructureDefinition/ext-ResourceCategory",
          "valueCodeableConcept": {
            "coding": [ {
              "system": "http://snomed.info/sct",
              "code": "422037009",
              "display": "toedieningsafspraak"
            } ]
          }
        } ],
        "identifier": {
          "system": "urn:oid:2.16.840.1.113883.2.4.3.11.999.77.422037009.1",
          "value": "MBH_300_geen_gebruik_niet_volgens_afspraak_TA"
        },
        "display": "relatie naar toedieningsafspraak"
      } ]
    },
    "request": {
      "method": "POST",
      "url": "MedicationStatement"
    }
  }, {
    "fullUrl": "urn:uuid:c7d2cc06-6a95-11ec-0000-020000000000",
    "resource": {
      "resourceType": "MedicationStatement",
      "meta": {
        "profile": [ "http://nictiz.nl/fhir/StructureDefinition/mp-MedicationUse2" ]
      },
      "text": {
        "status": "extensions",
        "div": "<div xmlns=\"http://www.w3.org/1999/xhtml\">\n            <table>\n              <caption>MedicationStatement. Subject: Patient, N. XXX_Rozendal. Id: MBH_300_geen_gebruik_volgens_afspraak_MGB (urn:oid:2.16.840.1.113883.2.4.3.11.999.77.6.1), Categorie: <span title=\"bevinding betreffende gedrag met betrekking tot medicatieregime (422979000 - SNOMED CT)\">bevinding betreffende gedrag met betrekking tot medicatieregime</span>, Status: not-taken</caption>\n              <tbody>\n                <tr>\n                  <th>Medicatie</th>\n                  <td>HYDROCHLOORTHIAZIDE TABLET 12,5MG</td>\n                </tr>\n                <tr>\n                  <th>Datum/tijd</th>\n                  <td>Vanaf ${DATE, T, D, -20}T00:00:00+02:00</td>\n                </tr>\n                <tr>\n                  <th>Informant</th>\n                  <td>${DATE, T, D, -20}T12:00:00+02:00</td>\n                </tr>\n                <tr>\n                  <th>Ondersteunende informatie</th>\n                  <td>relatie naar medicatieafspraak (Id: MBH_300_geen_gebruik_volgens_afspraak_stopMA (urn:oid:2.16.840.1.113883.2.4.3.11.999.77.16076005.1))</td>\n                </tr>\n              </tbody>\n            </table>\n          </div>"
      },
      "extension": [ {
        "url": "http://nictiz.nl/fhir/StructureDefinition/ext-RenderedDosageInstruction",
        "valueString": "Vanaf T - 19 dagen, geneesmiddel niet in gebruik, stopgezet"
      }, {
        "url": "http://nictiz.nl/fhir/StructureDefinition/ext-MedicationUse2.Prescriber",
        "valueReference": {
          "reference": "urn:uuid:d38b8558-6a95-11ec-0000-020000000000",
          "type": "PractitionerRole",
          "display": "Healthcare professional (role), Peter van Pulver, Huisartsen, niet nader gespecificeerd, Huisartsenpraktijk Pulver & Partners"
        }
      }, {
        "url": "http://nictiz.nl/fhir/StructureDefinition/ext-AsAgreedIndicator",
        "valueBoolean": true
      }, {
        "url": "http://nictiz.nl/fhir/StructureDefinition/ext-PharmaceuticalTreatment.Identifier",
        "valueIdentifier": {
          "system": "urn:oid:2.16.840.1.113883.2.4.3.11.999.77.1.1",
          "value": "MBH_300_geen_gebruik_volgens_afspraak"
        }
      }, {
        "url": "http://nictiz.nl/fhir/StructureDefinition/ext-MedicationUse2.Author",
        "valueReference": {
          "reference": "urn:uuid:e6b2d578-6a95-11ec-0000-020000000000",
          "type": "Patient",
          "display": "Patient, N. XXX_Rozendal"
        }
      } ],
      "modifierExtension": [ {
        "url": "http://nictiz.nl/fhir/StructureDefinition/ext-StopType",
        "valueCodeableConcept": {
          "coding": [ {
            "system": "http://snomed.info/sct",
            "code": "410546004",
            "display": "stopgezet"
          } ]
        }
      } ],
      "identifier": [ {
        "system": "urn:oid:2.16.840.1.113883.2.4.3.11.999.77.6.1",
        "value": "MBH_300_geen_gebruik_volgens_afspraak_MGB"
      } ],
      "status": "not-taken",
      "category": {
        "coding": [ {
          "system": "http://snomed.info/sct",
          "code": "422979000",
          "display": "bevinding betreffende gedrag met betrekking tot medicatieregime"
        } ]
      },
      "medicationReference": {
        "reference": "urn:uuid:e4d77504-6a95-11ec-0000-020000000000",
        "type": "Medication",
        "display": "HYDROCHLOORTHIAZIDE TABLET 12,5MG"
      },
      "subject": {
        "reference": "urn:uuid:e6b2d578-6a95-11ec-0000-020000000000",
        "type": "Patient",
        "display": "Patient, N. XXX_Rozendal"
      },
      "effectivePeriod": {
        "start": "${DATE, T, D, -20}T00:00:00+02:00"
      },
      "dateAsserted": "${DATE, T, D, -20}T12:00:00+02:00",
      "derivedFrom": [ {
        "extension": [ {
          "url": "http://nictiz.nl/fhir/StructureDefinition/ext-ResourceCategory",
          "valueCodeableConcept": {
            "coding": [ {
              "system": "http://snomed.info/sct",
              "code": "33633005",
              "display": "voorschrijven"
            } ]
          }
        } ],
        "identifier": {
          "system": "urn:oid:2.16.840.1.113883.2.4.3.11.999.77.16076005.1",
          "value": "MBH_300_geen_gebruik_volgens_afspraak_stopMA"
        },
        "display": "relatie naar medicatieafspraak"
      } ]
    },
    "request": {
      "method": "POST",
      "url": "MedicationStatement"
    }
  }, {
    "fullUrl": "urn:uuid:da166abd-6a95-11ec-0000-020000000000",
    "resource": {
      "resourceType": "MedicationStatement",
      "meta": {
        "profile": [ "http://nictiz.nl/fhir/StructureDefinition/mp-MedicationUse2" ]
      },
      "text": {
        "status": "extensions",
        "div": "<div xmlns=\"http://www.w3.org/1999/xhtml\">\n            <table>\n              <caption>MedicationStatement. Subject: Patient, N. XXX_Rozendal. Id: MBH_300_zelfzorgmedicatie_MBG (urn:oid:2.16.840.1.113883.2.4.3.11.999.77.6.1), Categorie: <span title=\"bevinding betreffende gedrag met betrekking tot medicatieregime (422979000 - SNOMED CT)\">bevinding betreffende gedrag met betrekking tot medicatieregime</span>, Status: actief</caption>\n              <tbody>\n                <tr>\n                  <th>Medicatie</th>\n                  <td>PREVALIN ALLERSTOP CETIRIZINE TABLET FILMOMH 10MG</td>\n                </tr>\n                <tr>\n                  <th>Datum/tijd</th>\n                  <td>Vanaf ${DATE, T, D, -20}T00:00:00+02:00</td>\n                </tr>\n                <tr>\n                  <th>Informant</th>\n                  <td>${DATE, T, D, -20}T20:30:10+02:00</td>\n                </tr>\n                <tr>\n                  <th>Dosering</th>\n                  <td>\n                    <div>Timing: <div>eenmalig per dag</div>\n                    </div>\n                    <div>Toedieningsweg: <span title=\"oraal (9 - G-Standaard thesaurus subtabel 0007)\">oraal</span>\n                    </div>\n                    <div>Dosering: doseAndRate TODO</div>\n                  </td>\n                </tr>\n              </tbody>\n            </table>\n          </div>"
      },
      "extension": [ {
        "url": "http://nictiz.nl/fhir/StructureDefinition/ext-RenderedDosageInstruction",
        "valueString": "Vanaf T - 90 dagen, gedurende 10 dagen, 1 maal per dag 1 stuk, oraal"
      }, {
        "url": "http://nictiz.nl/fhir/StructureDefinition/ext-PharmaceuticalTreatment.Identifier",
        "valueIdentifier": {
          "system": "urn:oid:2.16.840.1.113883.2.4.3.11.999.77.1.1",
          "value": "MBH_300_zelfzorgmedicatie"
        }
      }, {
        "url": "http://nictiz.nl/fhir/StructureDefinition/ext-MedicationUse2.Author",
        "valueReference": {
          "reference": "urn:uuid:e6b2d578-6a95-11ec-0000-020000000000",
          "type": "Patient",
          "display": "Patient, N. XXX_Rozendal"
        }
      } ],
      "identifier": [ {
        "system": "urn:oid:2.16.840.1.113883.2.4.3.11.999.77.6.1",
        "value": "MBH_300_zelfzorgmedicatie_MBG"
      } ],
      "status": "active",
      "category": {
        "coding": [ {
          "system": "http://snomed.info/sct",
          "code": "422979000",
          "display": "bevinding betreffende gedrag met betrekking tot medicatieregime"
        } ]
      },
      "medicationReference": {
        "reference": "urn:uuid:c984dce9-6a95-11ec-0000-020000000000",
        "type": "Medication",
        "display": "PREVALIN ALLERSTOP CETIRIZINE TABLET FILMOMH 10MG"
      },
      "subject": {
        "reference": "urn:uuid:e6b2d578-6a95-11ec-0000-020000000000",
        "type": "Patient",
        "display": "Patient, N. XXX_Rozendal"
      },
      "effectivePeriod": {
        "extension": [ {
          "url": "http://nictiz.nl/fhir/StructureDefinition/ext-TimeInterval.Duration",
          "valueDuration": {
            "value": 10,
            "unit": "dag",
            "system": "http://unitsofmeasure.org",
            "code": "d"
          }
        } ],
        "start": "${DATE, T, D, -20}T00:00:00+02:00"
      },
      "dateAsserted": "${DATE, T, D, -20}T20:30:10+02:00",
      "dosage": [ {
        "timing": {
          "repeat": {
            "frequency": 1,
            "period": 1,
            "periodUnit": "d"
          }
        },
        "route": {
          "coding": [ {
            "system": "urn:oid:2.16.840.1.113883.2.4.4.9",
            "code": "9",
            "display": "oraal"
          } ]
        },
        "doseAndRate": [ {
          "doseQuantity": {
            "extension": [ {
              "url": "http://hl7.org/fhir/StructureDefinition/iso21090-PQ-translation",
              "valueQuantity": {
                "value": 1,
                "unit": "stuk",
                "system": "urn:oid:2.16.840.1.113883.2.4.4.1.900.2",
                "code": "245"
              }
            } ],
            "value": 1,
            "unit": "stuk",
            "system": "http://unitsofmeasure.org",
            "code": "1"
          }
        } ]
      } ]
    },
    "request": {
      "method": "POST",
      "url": "MedicationStatement"
    }
  }, {
    "fullUrl": "urn:uuid:e6b2d578-6a95-11ec-0000-020000000000",
    "resource": {
      "resourceType": "Patient",
      "meta": {
        "profile": [ "http://nictiz.nl/fhir/StructureDefinition/nl-core-Patient" ]
      },
      "text": {
        "status": "extensions",
        "div": "<div xmlns=\"http://www.w3.org/1999/xhtml\">\n            <div>Id 999900985 (BSN), N. XXX_Rozendal, Vrouw, 11 november 1985</div>\n          </div>"
      },
      "identifier": [ {
        "system": "http://fhir.nl/fhir/NamingSystem/bsn",
        "value": "999900985"
      } ],
      "name": [ {
        "extension": [ {
          "url": "http://hl7.org/fhir/StructureDefinition/humanname-assembly-order",
          "valueCode": "NL1"
        } ],
        "use": "official",
        "text": "N. XXX_Rozendal",
        "family": "XXX_Rozendal",
        "_family": {
          "extension": [ {
            "url": "http://hl7.org/fhir/StructureDefinition/humanname-own-name",
            "valueString": "XXX_Rozendal"
          } ]
        },
        "given": [ "N." ],
        "_given": [ {
          "extension": [ {
            "url": "http://hl7.org/fhir/StructureDefinition/iso21090-EN-qualifier",
            "valueCode": "IN"
          } ]
        } ]
      } ],
      "gender": "female",
      "_gender": {
        "extension": [ {
          "url": "http://nictiz.nl/fhir/StructureDefinition/ext-CodeSpecification",
          "valueCodeableConcept": {
            "coding": [ {
              "system": "http://terminology.hl7.org/CodeSystem/v3-AdministrativeGender",
              "code": "F",
              "display": "Vrouw"
            } ]
          }
        } ]
      },
      "birthDate": "1985-11-11"
    },
    "request": {
      "method": "POST",
      "url": "Patient"
    }
  }, {
    "fullUrl": "urn:uuid:d38b8558-6a95-11ec-0000-020000000000",
    "resource": {
      "resourceType": "PractitionerRole",
      "meta": {
        "profile": [ "http://nictiz.nl/fhir/StructureDefinition/nl-core-HealthProfessional-PractitionerRole" ]
      },
      "text": {
        "status": "extensions",
        "div": "<div xmlns=\"http://www.w3.org/1999/xhtml\">\n            <table>\n              <caption>Zorgverlenerrol. </caption>\n              <tbody>\n                <tr>\n                  <th>Zorgverlener</th>\n                  <td>\n                    <div>Healthcare professional (person), Peter van Pulver</div>\n                    <div>Healthcare provider (organization), Huisartsenpraktijk Pulver &amp; Partners</div>\n                  </td>\n                </tr>\n                <tr>\n                  <th>Specialisme</th>\n                  <td>\n                    <span title=\"Huisartsen, niet nader gespecificeerd (0100 - AGB-medisch specialisme)\">Huisartsen, niet nader gespecificeerd</span>\n                  </td>\n                </tr>\n              </tbody>\n            </table>\n          </div>"
      },
      "practitioner": {
        "reference": "urn:uuid:eac8322e-6a95-11ec-0000-020000000000",
        "type": "Practitioner",
        "display": "Healthcare professional (person), Peter van Pulver"
      },
      "organization": {
        "reference": "urn:uuid:e02c9dd8-6a95-11ec-0000-020000000000",
        "type": "Organization",
        "display": "Healthcare provider (organization), Huisartsenpraktijk Pulver & Partners"
      },
      "specialty": [ {
        "coding": [ {
          "system": "urn:oid:2.16.840.1.113883.2.4.6.7",
          "version": "2020-10-23T00:00:00",
          "code": "0100",
          "display": "Huisartsen, niet nader gespecificeerd"
        } ]
      } ]
    },
    "request": {
      "method": "POST",
      "url": "PractitionerRole"
    }
  }, {
    "fullUrl": "urn:uuid:eac8322e-6a95-11ec-0000-020000000000",
    "resource": {
      "resourceType": "Practitioner",
      "meta": {
        "profile": [ "http://nictiz.nl/fhir/StructureDefinition/nl-core-HealthProfessional-Practitioner" ]
      },
      "text": {
        "status": "extensions",
        "div": "<div xmlns=\"http://www.w3.org/1999/xhtml\">\n            <div>Id 000001111 (UZI-NR-PERS), Peter van Pulver</div>\n          </div>"
      },
      "identifier": [ {
        "system": "http://fhir.nl/fhir/NamingSystem/uzi-nr-pers",
        "value": "000001111"
      } ],
      "name": [ {
        "use": "official",
        "text": "Peter van Pulver",
        "family": "van Pulver",
        "_family": {
          "extension": [ {
            "url": "http://hl7.org/fhir/StructureDefinition/humanname-own-prefix",
            "valueString": "van"
          }, {
            "url": "http://hl7.org/fhir/StructureDefinition/humanname-own-name",
            "valueString": "Pulver"
          } ]
        },
        "given": [ "Peter" ],
        "_given": [ {
          "extension": [ {
            "url": "http://hl7.org/fhir/StructureDefinition/iso21090-EN-qualifier",
            "valueCode": "BR"
          } ]
        } ]
      } ]
    },
    "request": {
      "method": "POST",
      "url": "Practitioner"
    }
  }, {
    "fullUrl": "urn:uuid:e02c9dd8-6a95-11ec-0000-020000000000",
    "resource": {
      "resourceType": "Organization",
      "meta": {
        "profile": [ "http://nictiz.nl/fhir/StructureDefinition/nl-core-HealthcareProvider-Organization" ]
      },
      "text": {
        "status": "extensions",
        "div": "<div xmlns=\"http://www.w3.org/1999/xhtml\">\n            <table>\n              <caption>Organisatie. Id: 00001111 (URA)</caption>\n              <tbody>\n                <tr>\n                  <th>Naam</th>\n                  <td>Huisartsenpraktijk Pulver &amp; Partners</td>\n                </tr>\n                <tr>\n                  <th>Adres</th>\n                  <td>Dorpsstraat 1, 1234AA Ons Dorp (Werk)</td>\n                </tr>\n              </tbody>\n            </table>\n          </div>"
      },
      "identifier": [ {
        "system": "http://fhir.nl/fhir/NamingSystem/ura",
        "value": "00001111"
      } ],
      "name": "Huisartsenpraktijk Pulver & Partners",
      "address": [ {
        "extension": [ {
          "url": "http://nictiz.nl/fhir/StructureDefinition/ext-AddressInformation.AddressType",
          "valueCodeableConcept": {
            "coding": [ {
              "system": "http://terminology.hl7.org/CodeSystem/v3-AddressUse",
              "code": "WP",
              "display": "Werkadres"
            } ]
          }
        } ],
        "use": "work",
        "line": [ "Dorpsstraat 1" ],
        "_line": [ {
          "extension": [ {
            "url": "http://hl7.org/fhir/StructureDefinition/iso21090-ADXP-streetName",
            "valueString": "Dorpsstraat"
          }, {
            "url": "http://hl7.org/fhir/StructureDefinition/iso21090-ADXP-houseNumber",
            "valueString": "1"
          } ]
        } ],
        "city": "Ons Dorp",
        "postalCode": "1234AA"
      } ]
    },
    "request": {
      "method": "POST",
      "url": "Organization"
    }
  }, {
    "fullUrl": "urn:uuid:d4af751d-6a95-11ec-0000-020000000000",
    "resource": {
      "resourceType": "Medication",
      "meta": {
        "profile": [ "http://nictiz.nl/fhir/StructureDefinition/mp-PharmaceuticalProduct" ]
      },
      "text": {
        "status": "extensions",
        "div": "<div xmlns=\"http://www.w3.org/1999/xhtml\">\n            <table>\n              <tbody>\n                <tr>\n                  <th>Code</th>\n                  <td>\n                    <span title=\"PRADAXA CAPSULE 110MG (1929461 - G-Standaard HPK)\">PRADAXA CAPSULE 110MG</span>\n                  </td>\n                </tr>\n              </tbody>\n            </table>\n          </div>"
      },
      "code": {
        "coding": [ {
          "system": "urn:oid:2.16.840.1.113883.2.4.4.7",
          "code": "1929461",
          "display": "PRADAXA CAPSULE 110MG",
          "userSelected": true
        }, {
          "system": "urn:oid:2.16.840.1.113883.2.4.4.10",
          "code": "86991",
          "display": "DABIGATRAN ETEXILAAT CAPSULE 110MG"
        }, {
          "system": "urn:oid:2.16.840.1.113883.2.4.4.1",
          "code": "129720",
          "display": "DABIGATRAN ETEXILAAT CAPSULE 110MG"
        } ],
        "text": "PRADAXA CAPSULE 110MG"
      }
    },
    "request": {
      "method": "POST",
      "url": "Medication"
    }
  }, {
    "fullUrl": "urn:uuid:ee65bf04-6a95-11ec-0000-020000000000",
    "resource": {
      "resourceType": "Medication",
      "meta": {
        "profile": [ "http://nictiz.nl/fhir/StructureDefinition/mp-PharmaceuticalProduct" ]
      },
      "text": {
        "status": "extensions",
        "div": "<div xmlns=\"http://www.w3.org/1999/xhtml\">\n            <table>\n              <tbody>\n                <tr>\n                  <th>Code</th>\n                  <td>\n                    <span title=\"SIMVASTATINE TABLET FO 20MG (67814 - G-Standaard PRK)\">SIMVASTATINE TABLET FO 20MG</span>\n                  </td>\n                </tr>\n              </tbody>\n            </table>\n          </div>"
      },
      "code": {
        "coding": [ {
          "system": "urn:oid:2.16.840.1.113883.2.4.4.10",
          "code": "67814",
          "display": "SIMVASTATINE TABLET FO 20MG",
          "userSelected": true
        }, {
          "system": "urn:oid:2.16.840.1.113883.2.4.4.1",
          "code": "116580",
          "display": "SIMVASTATINE TABLET FO 20MG"
        } ],
        "text": "SIMVASTATINE TABLET FO 20MG"
      }
    },
    "request": {
      "method": "POST",
      "url": "Medication"
    }
  }, {
    "fullUrl": "urn:uuid:e4d77504-6a95-11ec-0000-020000000000",
    "resource": {
      "resourceType": "Medication",
      "meta": {
        "profile": [ "http://nictiz.nl/fhir/StructureDefinition/mp-PharmaceuticalProduct" ]
      },
      "text": {
        "status": "extensions",
        "div": "<div xmlns=\"http://www.w3.org/1999/xhtml\">\n            <table>\n              <tbody>\n                <tr>\n                  <th>Code</th>\n                  <td>\n                    <span title=\"HYDROCHLOORTHIAZIDE TABLET 12,5MG (76333 - G-Standaard PRK)\">HYDROCHLOORTHIAZIDE TABLET 12,5MG</span>\n                  </td>\n                </tr>\n              </tbody>\n            </table>\n          </div>"
      },
      "code": {
        "coding": [ {
          "system": "urn:oid:2.16.840.1.113883.2.4.4.10",
          "code": "76333",
          "display": "HYDROCHLOORTHIAZIDE TABLET 12,5MG",
          "userSelected": true
        }, {
          "system": "urn:oid:2.16.840.1.113883.2.4.4.1",
          "code": "122602",
          "display": "HYDROCHLOORTHIAZIDE TABLET 12,5MG"
        } ],
        "text": "HYDROCHLOORTHIAZIDE TABLET 12,5MG"
      }
    },
    "request": {
      "method": "POST",
      "url": "Medication"
    }
  }, {
    "fullUrl": "urn:uuid:fb9c391d-6a95-11ec-0000-020000000000",
    "resource": {
      "resourceType": "Medication",
      "meta": {
        "profile": [ "http://nictiz.nl/fhir/StructureDefinition/mp-PharmaceuticalProduct" ]
      },
      "text": {
        "status": "extensions",
        "div": "<div xmlns=\"http://www.w3.org/1999/xhtml\">\n            <table>\n              <tbody>\n                <tr>\n                  <th>Code</th>\n                  <td>\n                    <span title=\"HYDROCHLOORTHIAZIDE APOTEX TABLET 12,5MG (2530104 - G-Standaard HPK)\">HYDROCHLOORTHIAZIDE APOTEX TABLET 12,5MG</span>\n                  </td>\n                </tr>\n              </tbody>\n            </table>\n          </div>"
      },
      "code": {
        "coding": [ {
          "system": "urn:oid:2.16.840.1.113883.2.4.4.7",
          "code": "2530104",
          "display": "HYDROCHLOORTHIAZIDE APOTEX TABLET 12,5MG",
          "userSelected": true
        }, {
          "system": "urn:oid:2.16.840.1.113883.2.4.4.10",
          "code": "76333",
          "display": "HYDROCHLOORTHIAZIDE TABLET 12,5MG"
        }, {
          "system": "urn:oid:2.16.840.1.113883.2.4.4.1",
          "code": "122602",
          "display": "HYDROCHLOORTHIAZIDE TABLET 12,5MG"
        } ],
        "text": "HYDROCHLOORTHIAZIDE APOTEX TABLET 12,5MG"
      }
    },
    "request": {
      "method": "POST",
      "url": "Medication"
    }
  }, {
    "fullUrl": "urn:uuid:c984dce9-6a95-11ec-0000-020000000000",
    "resource": {
      "resourceType": "Medication",
      "meta": {
        "profile": [ "http://nictiz.nl/fhir/StructureDefinition/mp-PharmaceuticalProduct" ]
      },
      "text": {
        "status": "extensions",
        "div": "<div xmlns=\"http://www.w3.org/1999/xhtml\">\n            <table>\n              <tbody>\n                <tr>\n                  <th>Code</th>\n                  <td>\n                    <span title=\"PREVALIN ALLERSTOP CETIRIZINE TABLET FILMOMH 10MG (2497905 - G-Standaard HPK)\">PREVALIN ALLERSTOP CETIRIZINE TABLET FILMOMH 10MG</span>\n                  </td>\n                </tr>\n              </tbody>\n            </table>\n          </div>"
      },
      "code": {
        "coding": [ {
          "system": "urn:oid:2.16.840.1.113883.2.4.4.7",
          "code": "2497905",
          "display": "PREVALIN ALLERSTOP CETIRIZINE TABLET FILMOMH 10MG",
          "userSelected": true
        }, {
          "system": "urn:oid:2.16.840.1.113883.2.4.4.10",
          "code": "26298",
          "display": "CETIRIZINE TABLET 10MG"
        }, {
          "system": "urn:oid:2.16.840.1.113883.2.4.4.1",
          "code": "71218",
          "display": "CETIRIZINE TABLET 10MG"
        } ],
        "text": "PREVALIN ALLERSTOP CETIRIZINE TABLET FILMOMH 10MG"
      }
    },
    "request": {
      "method": "POST",
      "url": "Medication"
    }
  } ]
}