{
  "resourceType": "Bundle",
  "id": "mg-mp-mg-tst-MGB-Scenarioset1-v30",
  "type": "transaction",
  "entry": [ {
    "fullUrl": "urn:uuid:b9df08f6-6ab0-11ec-0000-020000000000",
    "resource": {
      "resourceType": "MedicationStatement",
      "meta": {
        "profile": [ "http://nictiz.nl/fhir/StructureDefinition/mp-MedicationUse2" ]
      },
      "text": {
        "status": "extensions",
        "div": "<div xmlns=\"http://www.w3.org/1999/xhtml\">\n            <table>\n              <caption>MedicationStatement. Subject: Patient, D. XXX_Dijks. Id: MBH_300_start_eind_MGB (urn:oid:2.16.840.1.113883.2.4.3.11.999.77.6.1), Categorie: <span title=\"bevinding betreffende gedrag met betrekking tot medicatieregime (422979000 - SNOMED CT)\">bevinding betreffende gedrag met betrekking tot medicatieregime</span>, Status: actief</caption>\n              <tbody>\n                <tr>\n                  <th>Medicatie</th>\n                  <td>METOCLOPRAMIDE HCL PCH TABLET 10MG</td>\n                </tr>\n                <tr>\n                  <th>Datum/tijd</th>\n                  <td>${DATE, T, D, -10}T00:00:00+02:00 - ${DATE, T, D, -10}T23:59:59+02:00</td>\n                </tr>\n                <tr>\n                  <th>Informant</th>\n                  <td>${DATE, T, D, -10}T10:59:59+02:00</td>\n                </tr>\n                <tr>\n                  <th>Ondersteunende informatie</th>\n                  <td>relatie naar toedieningsafspraak (Id: MBH_300_start_eind_TA (urn:oid:2.16.840.1.113883.2.4.3.11.999.77.422037009.1))</td>\n                </tr>\n                <tr>\n                  <th>Dosering</th>\n                  <td>\n                    <div>Toedieningsweg: <span title=\"oraal (9 - G-Standaard thesaurus subtabel 0007)\">oraal</span>\n                    </div>\n                    <div>Dosering: doseAndRate TODO</div>\n                  </td>\n                </tr>\n              </tbody>\n            </table>\n          </div>"
      },
      "extension": [ {
        "url": "http://nictiz.nl/fhir/StructureDefinition/ext-RenderedDosageInstruction",
        "valueString": "Vanaf T - 10 dagen, tot en met T - 5 dagen, 1 stuk, oraal"
      }, {
        "url": "http://nictiz.nl/fhir/StructureDefinition/ext-MedicationUse2.Prescriber",
        "valueReference": {
          "reference": "urn:uuid:fdf54558-6b5e-11ec-0000-020000000000",
          "type": "PractitionerRole",
          "display": "Healthcare professional (role), Peter van Pulver, Huisartsen, niet nader gespecificeerd, Huisartsenpraktijk Pulver & Partners"
        }
      }, {
        "url": "http://nictiz.nl/fhir/StructureDefinition/ext-AsAgreedIndicator",
        "valueBoolean": true
      }, {
        "url": "http://nictiz.nl/fhir/StructureDefinition/ext-PharmaceuticalTreatment.Identifier",
        "valueIdentifier": {
          "system": "urn:oid:2.16.840.1.113883.2.4.3.11.999.77.1.1",
          "value": "MBH_300_start_eind"
        }
      }, {
        "url": "http://nictiz.nl/fhir/StructureDefinition/ext-MedicationUse2.Author",
        "valueReference": {
          "reference": "urn:uuid:4c764878-6b0d-11ec-0000-020000000000",
          "type": "Patient",
          "display": "Patient, D. XXX_Dijks"
        }
      } ],
      "identifier": [ {
        "system": "urn:oid:2.16.840.1.113883.2.4.3.11.999.77.6.1",
        "value": "MBH_300_start_eind_MGB"
      } ],
      "status": "active",
      "category": {
        "coding": [ {
          "system": "http://snomed.info/sct",
          "code": "422979000",
          "display": "bevinding betreffende gedrag met betrekking tot medicatieregime"
        } ]
      },
      "medicationReference": {
        "reference": "urn:uuid:f543951d-6b24-11ec-0000-020000000000",
        "type": "Medication",
        "display": "METOCLOPRAMIDE HCL PCH TABLET 10MG"
      },
      "subject": {
        "reference": "urn:uuid:4c764878-6b0d-11ec-0000-020000000000",
        "type": "Patient",
        "display": "Patient, D. XXX_Dijks"
      },
      "effectivePeriod": {
        "start": "${DATE, T, D, -10}T00:00:00+02:00",
        "end": "${DATE, T, D, -10}T23:59:59+02:00"
      },
      "dateAsserted": "${DATE, T, D, -10}T10:59:59+02:00",
      "derivedFrom": [ {
        "extension": [ {
          "url": "http://nictiz.nl/fhir/StructureDefinition/ext-ResourceCategory",
          "valueCodeableConcept": {
            "coding": [ {
              "system": "http://snomed.info/sct",
              "code": "422037009",
              "display": "toedieningsafspraak"
            } ]
          }
        } ],
        "identifier": {
          "system": "urn:oid:2.16.840.1.113883.2.4.3.11.999.77.422037009.1",
          "value": "MBH_300_start_eind_TA"
        },
        "display": "relatie naar toedieningsafspraak"
      } ],
      "dosage": [ {
        "route": {
          "coding": [ {
            "system": "urn:oid:2.16.840.1.113883.2.4.4.9",
            "code": "9",
            "display": "oraal"
          } ]
        },
        "doseAndRate": [ {
          "doseQuantity": {
            "extension": [ {
              "url": "http://hl7.org/fhir/StructureDefinition/iso21090-PQ-translation",
              "valueQuantity": {
                "value": 1,
                "unit": "stuk",
                "system": "urn:oid:2.16.840.1.113883.2.4.4.1.900.2",
                "code": "245"
              }
            } ],
            "value": 1,
            "unit": "stuk",
            "system": "http://unitsofmeasure.org",
            "code": "1"
          }
        } ]
      } ]
    },
    "request": {
      "method": "POST",
      "url": "MedicationStatement"
    }
  }, {
    "fullUrl": "urn:uuid:10caa427-6b1a-11ec-0000-020000000000",
    "resource": {
      "resourceType": "MedicationStatement",
      "meta": {
        "profile": [ "http://nictiz.nl/fhir/StructureDefinition/mp-MedicationUse2" ]
      },
      "text": {
        "status": "extensions",
        "div": "<div xmlns=\"http://www.w3.org/1999/xhtml\">\n            <table>\n              <caption>MedicationStatement. Subject: Patient, D. XXX_Dijks. Id: MBH_300_start_duur_MGB (urn:oid:2.16.840.1.113883.2.4.3.11.999.77.6.1), Categorie: <span title=\"bevinding betreffende gedrag met betrekking tot medicatieregime (422979000 - SNOMED CT)\">bevinding betreffende gedrag met betrekking tot medicatieregime</span>, Status: actief</caption>\n              <tbody>\n                <tr>\n                  <th>Medicatie</th>\n                  <td>LISINOPRIL 10MG TABLET</td>\n                </tr>\n                <tr>\n                  <th>Datum/tijd</th>\n                  <td>Vanaf ${DATE, T, D, -10}T00:00:00+02:00</td>\n                </tr>\n                <tr>\n                  <th>Informant</th>\n                  <td>${DATE, T, D, -10}T12:00:00+02:00 - Patient, D. XXX_Dijks</td>\n                </tr>\n                <tr>\n                  <th>Ondersteunende informatie</th>\n                  <td>relatie naar medicatieafspraak (Id: MBH_300_start_duur_MA (urn:oid:2.16.840.1.113883.2.4.3.11.999.77.16076005.1))</td>\n                </tr>\n                <tr>\n                  <th>Dosering</th>\n                  <td>\n                    <div>Timing: <div>eenmalig per dag</div>\n                    </div>\n                    <div>Toedieningsweg: <span title=\"oraal (9 - G-Standaard thesaurus subtabel 0007)\">oraal</span>\n                    </div>\n                    <div>Dosering: doseAndRate TODO</div>\n                  </td>\n                </tr>\n              </tbody>\n            </table>\n          </div>"
      },
      "extension": [ {
        "url": "http://nictiz.nl/fhir/StructureDefinition/ext-RenderedDosageInstruction",
        "valueString": "Vanaf T - 20 dagen, 1 maal per dag 1 stuk, oraal"
      }, {
        "url": "http://nictiz.nl/fhir/StructureDefinition/ext-MedicationUse2.Prescriber",
        "valueReference": {
          "reference": "urn:uuid:fdf54558-6b5e-11ec-0000-020000000000",
          "type": "PractitionerRole",
          "display": "Healthcare professional (role), Peter van Pulver, Huisartsen, niet nader gespecificeerd, Huisartsenpraktijk Pulver & Partners"
        }
      }, {
        "url": "http://nictiz.nl/fhir/StructureDefinition/ext-AsAgreedIndicator",
        "valueBoolean": true
      }, {
        "url": "http://nictiz.nl/fhir/StructureDefinition/ext-PharmaceuticalTreatment.Identifier",
        "valueIdentifier": {
          "system": "urn:oid:2.16.840.1.113883.2.4.3.11.999.77.1.1",
          "value": "MBH_300_start_duur"
        }
      }, {
        "url": "http://nictiz.nl/fhir/StructureDefinition/ext-MedicationUse2.Author",
        "valueReference": {
          "reference": "urn:uuid:fdf54558-6b5e-11ec-0000-020000000000",
          "type": "PractitionerRole",
          "display": "Healthcare professional (role), Peter van Pulver, Huisartsen, niet nader gespecificeerd, Huisartsenpraktijk Pulver & Partners"
        }
      } ],
      "identifier": [ {
        "system": "urn:oid:2.16.840.1.113883.2.4.3.11.999.77.6.1",
        "value": "MBH_300_start_duur_MGB"
      } ],
      "status": "active",
      "category": {
        "coding": [ {
          "system": "http://snomed.info/sct",
          "code": "422979000",
          "display": "bevinding betreffende gedrag met betrekking tot medicatieregime"
        } ]
      },
      "medicationReference": {
        "reference": "urn:uuid:dc02ff1d-6a9c-11ec-0000-020000000000",
        "type": "Medication",
        "display": "LISINOPRIL 10MG TABLET"
      },
      "subject": {
        "reference": "urn:uuid:4c764878-6b0d-11ec-0000-020000000000",
        "type": "Patient",
        "display": "Patient, D. XXX_Dijks"
      },
      "effectivePeriod": {
        "start": "${DATE, T, D, -10}T00:00:00+02:00"
      },
      "dateAsserted": "${DATE, T, D, -10}T12:00:00+02:00",
      "informationSource": {
        "reference": "urn:uuid:4c764878-6b0d-11ec-0000-020000000000",
        "type": "Patient",
        "display": "Patient, D. XXX_Dijks"
      },
      "derivedFrom": [ {
        "extension": [ {
          "url": "http://nictiz.nl/fhir/StructureDefinition/ext-ResourceCategory",
          "valueCodeableConcept": {
            "coding": [ {
              "system": "http://snomed.info/sct",
              "code": "33633005",
              "display": "voorschrijven"
            } ]
          }
        } ],
        "identifier": {
          "system": "urn:oid:2.16.840.1.113883.2.4.3.11.999.77.16076005.1",
          "value": "MBH_300_start_duur_MA"
        },
        "display": "relatie naar medicatieafspraak"
      } ],
      "dosage": [ {
        "timing": {
          "repeat": {
            "frequency": 1,
            "period": 1,
            "periodUnit": "d"
          }
        },
        "route": {
          "coding": [ {
            "system": "urn:oid:2.16.840.1.113883.2.4.4.9",
            "code": "9",
            "display": "oraal"
          } ]
        },
        "doseAndRate": [ {
          "doseQuantity": {
            "extension": [ {
              "url": "http://hl7.org/fhir/StructureDefinition/iso21090-PQ-translation",
              "valueQuantity": {
                "value": 1,
                "unit": "stuk",
                "system": "urn:oid:2.16.840.1.113883.2.4.4.1.900.2",
                "code": "245"
              }
            } ],
            "value": 1,
            "unit": "stuk",
            "system": "http://unitsofmeasure.org",
            "code": "1"
          }
        } ]
      } ]
    },
    "request": {
      "method": "POST",
      "url": "MedicationStatement"
    }
  }, {
    "fullUrl": "urn:uuid:18732cbd-6b0b-11ec-0000-020000000000",
    "resource": {
      "resourceType": "MedicationStatement",
      "meta": {
        "profile": [ "http://nictiz.nl/fhir/StructureDefinition/mp-MedicationUse2" ]
      },
      "text": {
        "status": "extensions",
        "div": "<div xmlns=\"http://www.w3.org/1999/xhtml\">\n            <table>\n              <caption>MedicationStatement. Subject: Patient, D. XXX_Dijks. Id: MBH_300_chronisch_MGB (urn:oid:2.16.840.1.113883.2.4.3.11.999.77.6.1), Categorie: <span title=\"bevinding betreffende gedrag met betrekking tot medicatieregime (422979000 - SNOMED CT)\">bevinding betreffende gedrag met betrekking tot medicatieregime</span>, Status: actief</caption>\n              <tbody>\n                <tr>\n                  <th>Medicatie</th>\n                  <td>ROTER APC TABLET</td>\n                </tr>\n                <tr>\n                  <th>Datum/tijd</th>\n                  <td>Vanaf ${DATE, T, D, -10}T00:00:00+02:00</td>\n                </tr>\n                <tr>\n                  <th>Informant</th>\n                  <td>${DATE, T, D, -10}T11:43:12+02:00</td>\n                </tr>\n                <tr>\n                  <th>Ondersteunende informatie</th>\n                  <td>relatie naar toedieningsafspraak (Id: MBH_300_chronisch_TA (urn:oid:2.16.840.1.113883.2.4.3.11.999.77.422037009.1))</td>\n                </tr>\n                <tr>\n                  <th>Dosering</th>\n                  <td>\n                    <div>Timing: <div>eenmalig per dag</div>\n                    </div>\n                    <div>Toedieningsweg: <span title=\"oraal (9 - G-Standaard thesaurus subtabel 0007)\">oraal</span>\n                    </div>\n                    <div>Dosering: doseAndRate TODO</div>\n                  </td>\n                </tr>\n              </tbody>\n            </table>\n          </div>"
      },
      "extension": [ {
        "url": "http://nictiz.nl/fhir/StructureDefinition/ext-RenderedDosageInstruction",
        "valueString": "Vanaf T - 30 dagen, 1 maal per dag 1 stuk, oraal"
      }, {
        "url": "http://nictiz.nl/fhir/StructureDefinition/ext-MedicationUse2.Prescriber",
        "valueReference": {
          "reference": "urn:uuid:fdf54558-6b5e-11ec-0000-020000000000",
          "type": "PractitionerRole",
          "display": "Healthcare professional (role), Peter van Pulver, Huisartsen, niet nader gespecificeerd, Huisartsenpraktijk Pulver & Partners"
        }
      }, {
        "url": "http://nictiz.nl/fhir/StructureDefinition/ext-AsAgreedIndicator",
        "valueBoolean": true
      }, {
        "url": "http://nictiz.nl/fhir/StructureDefinition/ext-PharmaceuticalTreatment.Identifier",
        "valueIdentifier": {
          "system": "urn:oid:2.16.840.1.113883.2.4.3.11.999.77.1.1",
          "value": "MBH_300_chronisch"
        }
      }, {
        "url": "http://nictiz.nl/fhir/StructureDefinition/ext-MedicationUse2.Author",
        "valueReference": {
          "reference": "urn:uuid:4c764878-6b0d-11ec-0000-020000000000",
          "type": "Patient",
          "display": "Patient, D. XXX_Dijks"
        }
      } ],
      "identifier": [ {
        "system": "urn:oid:2.16.840.1.113883.2.4.3.11.999.77.6.1",
        "value": "MBH_300_chronisch_MGB"
      } ],
      "status": "active",
      "category": {
        "coding": [ {
          "system": "http://snomed.info/sct",
          "code": "422979000",
          "display": "bevinding betreffende gedrag met betrekking tot medicatieregime"
        } ]
      },
      "medicationReference": {
        "reference": "urn:uuid:abb8231d-6b39-11ec-0000-020000000000",
        "type": "Medication",
        "display": "ROTER APC TABLET"
      },
      "subject": {
        "reference": "urn:uuid:4c764878-6b0d-11ec-0000-020000000000",
        "type": "Patient",
        "display": "Patient, D. XXX_Dijks"
      },
      "effectivePeriod": {
        "start": "${DATE, T, D, -10}T00:00:00+02:00"
      },
      "dateAsserted": "${DATE, T, D, -10}T11:43:12+02:00",
      "derivedFrom": [ {
        "extension": [ {
          "url": "http://nictiz.nl/fhir/StructureDefinition/ext-ResourceCategory",
          "valueCodeableConcept": {
            "coding": [ {
              "system": "http://snomed.info/sct",
              "code": "422037009",
              "display": "toedieningsafspraak"
            } ]
          }
        } ],
        "identifier": {
          "system": "urn:oid:2.16.840.1.113883.2.4.3.11.999.77.422037009.1",
          "value": "MBH_300_chronisch_TA"
        },
        "display": "relatie naar toedieningsafspraak"
      } ],
      "dosage": [ {
        "timing": {
          "repeat": {
            "frequency": 1,
            "period": 1,
            "periodUnit": "d"
          }
        },
        "route": {
          "coding": [ {
            "system": "urn:oid:2.16.840.1.113883.2.4.4.9",
            "code": "9",
            "display": "oraal"
          } ]
        },
        "doseAndRate": [ {
          "doseQuantity": {
            "extension": [ {
              "url": "http://hl7.org/fhir/StructureDefinition/iso21090-PQ-translation",
              "valueQuantity": {
                "value": 1,
                "unit": "stuk",
                "system": "urn:oid:2.16.840.1.113883.2.4.4.1.900.2",
                "code": "245"
              }
            } ],
            "value": 1,
            "unit": "stuk",
            "system": "http://unitsofmeasure.org",
            "code": "1"
          }
        } ]
      } ]
    },
    "request": {
      "method": "POST",
      "url": "MedicationStatement"
    }
  }, {
    "fullUrl": "urn:uuid:4bf3c427-6b68-11ec-0000-020000000000",
    "resource": {
      "resourceType": "MedicationStatement",
      "meta": {
        "profile": [ "http://nictiz.nl/fhir/StructureDefinition/mp-MedicationUse2" ]
      },
      "text": {
        "status": "extensions",
        "div": "<div xmlns=\"http://www.w3.org/1999/xhtml\">\n            <table>\n              <caption>MedicationStatement. Subject: Patient, D. XXX_Dijks. Id: MBH_300_start_duur2_MGB (urn:oid:2.16.840.1.113883.2.4.3.11.999.77.6.1), Categorie: <span title=\"bevinding betreffende gedrag met betrekking tot medicatieregime (422979000 - SNOMED CT)\">bevinding betreffende gedrag met betrekking tot medicatieregime</span>, Status: actief</caption>\n              <tbody>\n                <tr>\n                  <th>Medicatie</th>\n                  <td>PANTOPRAZOL TABLET MSR 20MG</td>\n                </tr>\n                <tr>\n                  <th>Informant</th>\n                  <td>${DATE, T, D, -10}T15:21:33+02:00 - Patient, D. XXX_Dijks</td>\n                </tr>\n                <tr>\n                  <th>Ondersteunende informatie</th>\n                  <td>relatie naar medicatieafspraak (Id: MBH_300_start_duur2_MA (urn:oid:2.16.840.1.113883.2.4.3.11.999.77.16076005.1))</td>\n                </tr>\n                <tr>\n                  <th>Dosering</th>\n                  <td>\n                    <div>Timing: <div>eenmalig per dag</div>\n                    </div>\n                    <div>Toedieningsweg: <span title=\"oraal (9 - G-Standaard thesaurus subtabel 0007)\">oraal</span>\n                    </div>\n                    <div>Dosering: doseAndRate TODO</div>\n                  </td>\n                </tr>\n              </tbody>\n            </table>\n          </div>"
      },
      "extension": [ {
        "url": "http://nictiz.nl/fhir/StructureDefinition/ext-RenderedDosageInstruction",
        "valueString": "1 maal per dag 1 stuk, oraal"
      }, {
        "url": "http://nictiz.nl/fhir/StructureDefinition/ext-MedicationUse2.Prescriber",
        "valueReference": {
          "reference": "urn:uuid:fdf54558-6b5e-11ec-0000-020000000000",
          "type": "PractitionerRole",
          "display": "Healthcare professional (role), Peter van Pulver, Huisartsen, niet nader gespecificeerd, Huisartsenpraktijk Pulver & Partners"
        }
      }, {
        "url": "http://nictiz.nl/fhir/StructureDefinition/ext-AsAgreedIndicator",
        "valueBoolean": true
      }, {
        "url": "http://nictiz.nl/fhir/StructureDefinition/ext-PharmaceuticalTreatment.Identifier",
        "valueIdentifier": {
          "system": "urn:oid:2.16.840.1.113883.2.4.3.11.999.77.1.1",
          "value": "MBH_300_start_duur2"
        }
      }, {
        "url": "http://nictiz.nl/fhir/StructureDefinition/ext-MedicationUse2.Author",
        "valueReference": {
          "reference": "urn:uuid:fdf54558-6b5e-11ec-0000-020000000000",
          "type": "PractitionerRole",
          "display": "Healthcare professional (role), Peter van Pulver, Huisartsen, niet nader gespecificeerd, Huisartsenpraktijk Pulver & Partners"
        }
      } ],
      "identifier": [ {
        "system": "urn:oid:2.16.840.1.113883.2.4.3.11.999.77.6.1",
        "value": "MBH_300_start_duur2_MGB"
      } ],
      "status": "active",
      "category": {
        "coding": [ {
          "system": "http://snomed.info/sct",
          "code": "422979000",
          "display": "bevinding betreffende gedrag met betrekking tot medicatieregime"
        } ]
      },
      "medicationReference": {
        "reference": "urn:uuid:6b7d6104-6b5e-11ec-0000-020000000000",
        "type": "Medication",
        "display": "PANTOPRAZOL TABLET MSR 20MG"
      },
      "subject": {
        "reference": "urn:uuid:4c764878-6b0d-11ec-0000-020000000000",
        "type": "Patient",
        "display": "Patient, D. XXX_Dijks"
      },
      "dateAsserted": "${DATE, T, D, -10}T15:21:33+02:00",
      "informationSource": {
        "reference": "urn:uuid:4c764878-6b0d-11ec-0000-020000000000",
        "type": "Patient",
        "display": "Patient, D. XXX_Dijks"
      },
      "derivedFrom": [ {
        "extension": [ {
          "url": "http://nictiz.nl/fhir/StructureDefinition/ext-ResourceCategory",
          "valueCodeableConcept": {
            "coding": [ {
              "system": "http://snomed.info/sct",
              "code": "33633005",
              "display": "voorschrijven"
            } ]
          }
        } ],
        "identifier": {
          "system": "urn:oid:2.16.840.1.113883.2.4.3.11.999.77.16076005.1",
          "value": "MBH_300_start_duur2_MA"
        },
        "display": "relatie naar medicatieafspraak"
      } ],
      "dosage": [ {
        "timing": {
          "repeat": {
            "frequency": 1,
            "period": 1,
            "periodUnit": "d"
          }
        },
        "route": {
          "coding": [ {
            "system": "urn:oid:2.16.840.1.113883.2.4.4.9",
            "code": "9",
            "display": "oraal"
          } ]
        },
        "doseAndRate": [ {
          "doseQuantity": {
            "extension": [ {
              "url": "http://hl7.org/fhir/StructureDefinition/iso21090-PQ-translation",
              "valueQuantity": {
                "value": 1,
                "unit": "stuk",
                "system": "urn:oid:2.16.840.1.113883.2.4.4.1.900.2",
                "code": "245"
              }
            } ],
            "value": 1,
            "unit": "stuk",
            "system": "http://unitsofmeasure.org",
            "code": "1"
          }
        } ]
      } ]
    },
    "request": {
      "method": "POST",
      "url": "MedicationStatement"
    }
  }, {
    "fullUrl": "urn:uuid:e88f0a06-6b06-11ec-0000-020000000000",
    "resource": {
      "resourceType": "MedicationStatement",
      "meta": {
        "profile": [ "http://nictiz.nl/fhir/StructureDefinition/mp-MedicationUse2" ]
      },
      "text": {
        "status": "extensions",
        "div": "<div xmlns=\"http://www.w3.org/1999/xhtml\">\n            <table>\n              <caption>MedicationStatement. Subject: Patient, D. XXX_Dijks. Id: MBH_300_dosis_stuks_MGB (urn:oid:2.16.840.1.113883.2.4.3.11.999.77.6.1), Categorie: <span title=\"bevinding betreffende gedrag met betrekking tot medicatieregime (422979000 - SNOMED CT)\">bevinding betreffende gedrag met betrekking tot medicatieregime</span>, Status: actief</caption>\n              <tbody>\n                <tr>\n                  <th>Medicatie</th>\n                  <td>FLUTICASON INHALATIEPOEDER 100UG/DO 60DO DISKUS</td>\n                </tr>\n                <tr>\n                  <th>Informant</th>\n                  <td>${DATE, T, D, -10}T07:59:59+02:00 - Patient, D. XXX_Dijks</td>\n                </tr>\n                <tr>\n                  <th>Ondersteunende informatie</th>\n                  <td>relatie naar medicatieafspraak (Id: MBH_300_dosis_stuks_MA (urn:oid:2.16.840.1.113883.2.4.3.11.999.77.16076005.1))</td>\n                </tr>\n                <tr>\n                  <th>Dosering</th>\n                  <td>\n                    <div>Timing: <div>2 maal per dag</div>\n                    </div>\n                    <div>Toedieningsweg: <span title=\"inhalatie (62 - G-Standaard thesaurus subtabel 0007)\">inhalatie</span>\n                    </div>\n                    <div>Dosering: doseAndRate TODO</div>\n                  </td>\n                </tr>\n              </tbody>\n            </table>\n          </div>"
      },
      "extension": [ {
        "url": "http://nictiz.nl/fhir/StructureDefinition/ext-RenderedDosageInstruction",
        "valueString": "2 maal per dag 1 dosis, inhalatie"
      }, {
        "url": "http://nictiz.nl/fhir/StructureDefinition/ext-MedicationUse2.Prescriber",
        "valueReference": {
          "reference": "urn:uuid:fdf54558-6b5e-11ec-0000-020000000000",
          "type": "PractitionerRole",
          "display": "Healthcare professional (role), Peter van Pulver, Huisartsen, niet nader gespecificeerd, Huisartsenpraktijk Pulver & Partners"
        }
      }, {
        "url": "http://nictiz.nl/fhir/StructureDefinition/ext-AsAgreedIndicator",
        "valueBoolean": true
      }, {
        "url": "http://nictiz.nl/fhir/StructureDefinition/ext-PharmaceuticalTreatment.Identifier",
        "valueIdentifier": {
          "system": "urn:oid:2.16.840.1.113883.2.4.3.11.999.77.1.1",
          "value": "MBH_300_dosis_stuks"
        }
      }, {
        "url": "http://nictiz.nl/fhir/StructureDefinition/ext-MedicationUse2.Author",
        "valueReference": {
          "reference": "urn:uuid:fdf54558-6b5e-11ec-0000-020000000000",
          "type": "PractitionerRole",
          "display": "Healthcare professional (role), Peter van Pulver, Huisartsen, niet nader gespecificeerd, Huisartsenpraktijk Pulver & Partners"
        }
      } ],
      "identifier": [ {
        "system": "urn:oid:2.16.840.1.113883.2.4.3.11.999.77.6.1",
        "value": "MBH_300_dosis_stuks_MGB"
      } ],
      "status": "active",
      "category": {
        "coding": [ {
          "system": "http://snomed.info/sct",
          "code": "422979000",
          "display": "bevinding betreffende gedrag met betrekking tot medicatieregime"
        } ]
      },
      "medicationReference": {
        "reference": "urn:uuid:501c9f1d-6b1e-11ec-0000-020000000000",
        "type": "Medication",
        "display": "FLUTICASON INHALATIEPOEDER 100UG/DO 60DO DISKUS"
      },
      "subject": {
        "reference": "urn:uuid:4c764878-6b0d-11ec-0000-020000000000",
        "type": "Patient",
        "display": "Patient, D. XXX_Dijks"
      },
      "dateAsserted": "${DATE, T, D, -10}T07:59:59+02:00",
      "informationSource": {
        "reference": "urn:uuid:4c764878-6b0d-11ec-0000-020000000000",
        "type": "Patient",
        "display": "Patient, D. XXX_Dijks"
      },
      "derivedFrom": [ {
        "extension": [ {
          "url": "http://nictiz.nl/fhir/StructureDefinition/ext-ResourceCategory",
          "valueCodeableConcept": {
            "coding": [ {
              "system": "http://snomed.info/sct",
              "code": "33633005",
              "display": "voorschrijven"
            } ]
          }
        } ],
        "identifier": {
          "system": "urn:oid:2.16.840.1.113883.2.4.3.11.999.77.16076005.1",
          "value": "MBH_300_dosis_stuks_MA"
        },
        "display": "relatie naar medicatieafspraak"
      } ],
      "dosage": [ {
        "timing": {
          "repeat": {
            "frequency": 2,
            "period": 1,
            "periodUnit": "d"
          }
        },
        "route": {
          "coding": [ {
            "system": "urn:oid:2.16.840.1.113883.2.4.4.9",
            "code": "62",
            "display": "inhalatie"
          } ]
        },
        "doseAndRate": [ {
          "doseQuantity": {
            "extension": [ {
              "url": "http://hl7.org/fhir/StructureDefinition/iso21090-PQ-translation",
              "valueQuantity": {
                "value": 1,
                "unit": "dosis",
                "system": "urn:oid:2.16.840.1.113883.2.4.4.1.900.2",
                "code": "208"
              }
            } ],
            "value": 1,
            "unit": "dosis",
            "system": "http://unitsofmeasure.org",
            "code": "1"
          }
        } ]
      } ]
    },
    "request": {
      "method": "POST",
      "url": "MedicationStatement"
    }
  }, {
    "fullUrl": "urn:uuid:4c764878-6b0d-11ec-0000-020000000000",
    "resource": {
      "resourceType": "Patient",
      "meta": {
        "profile": [ "http://nictiz.nl/fhir/StructureDefinition/nl-core-Patient" ]
      },
      "text": {
        "status": "extensions",
        "div": "<div xmlns=\"http://www.w3.org/1999/xhtml\">\n            <div>Id 999900468 (BSN), D. XXX_Dijks, Vrouw, 21 oktober 1963</div>\n          </div>"
      },
      "identifier": [ {
        "system": "http://fhir.nl/fhir/NamingSystem/bsn",
        "value": "999900468"
      } ],
      "name": [ {
        "extension": [ {
          "url": "http://hl7.org/fhir/StructureDefinition/humanname-assembly-order",
          "valueCode": "NL1"
        } ],
        "use": "official",
        "text": "D. XXX_Dijks",
        "family": "XXX_Dijks",
        "_family": {
          "extension": [ {
            "url": "http://hl7.org/fhir/StructureDefinition/humanname-own-name",
            "valueString": "XXX_Dijks"
          } ]
        },
        "given": [ "D." ],
        "_given": [ {
          "extension": [ {
            "url": "http://hl7.org/fhir/StructureDefinition/iso21090-EN-qualifier",
            "valueCode": "IN"
          } ]
        } ]
      } ],
      "gender": "female",
      "_gender": {
        "extension": [ {
          "url": "http://nictiz.nl/fhir/StructureDefinition/ext-CodeSpecification",
          "valueCodeableConcept": {
            "coding": [ {
              "system": "http://terminology.hl7.org/CodeSystem/v3-AdministrativeGender",
              "code": "F",
              "display": "Vrouw"
            } ]
          }
        } ]
      },
      "birthDate": "1963-10-21"
    },
    "request": {
      "method": "POST",
      "url": "Patient"
    }
  }, {
    "fullUrl": "urn:uuid:fdf54558-6b5e-11ec-0000-020000000000",
    "resource": {
      "resourceType": "PractitionerRole",
      "meta": {
        "profile": [ "http://nictiz.nl/fhir/StructureDefinition/nl-core-HealthProfessional-PractitionerRole" ]
      },
      "text": {
        "status": "extensions",
        "div": "<div xmlns=\"http://www.w3.org/1999/xhtml\">\n            <table>\n              <caption>Zorgverlenerrol. </caption>\n              <tbody>\n                <tr>\n                  <th>Zorgverlener</th>\n                  <td>\n                    <div>Healthcare professional (person), Peter van Pulver</div>\n                    <div>Healthcare provider (organization), Huisartsenpraktijk Pulver &amp; Partners</div>\n                  </td>\n                </tr>\n                <tr>\n                  <th>Specialisme</th>\n                  <td>\n                    <span title=\"Huisartsen, niet nader gespecificeerd (0100 - AGB-medisch specialisme)\">Huisartsen, niet nader gespecificeerd</span>\n                  </td>\n                </tr>\n              </tbody>\n            </table>\n          </div>"
      },
      "practitioner": {
        "reference": "urn:uuid:9bdfc42e-6ab8-11ec-0000-020000000000",
        "type": "Practitioner",
        "display": "Healthcare professional (person), Peter van Pulver"
      },
      "organization": {
        "reference": "urn:uuid:7fa869d8-6b44-11ec-0000-020000000000",
        "type": "Organization",
        "display": "Healthcare provider (organization), Huisartsenpraktijk Pulver & Partners"
      },
      "specialty": [ {
        "coding": [ {
          "system": "urn:oid:2.16.840.1.113883.2.4.6.7",
          "version": "2020-10-23T00:00:00",
          "code": "0100",
          "display": "Huisartsen, niet nader gespecificeerd"
        } ]
      } ]
    },
    "request": {
      "method": "POST",
      "url": "PractitionerRole"
    }
  }, {
    "fullUrl": "urn:uuid:9bdfc42e-6ab8-11ec-0000-020000000000",
    "resource": {
      "resourceType": "Practitioner",
      "meta": {
        "profile": [ "http://nictiz.nl/fhir/StructureDefinition/nl-core-HealthProfessional-Practitioner" ]
      },
      "text": {
        "status": "extensions",
        "div": "<div xmlns=\"http://www.w3.org/1999/xhtml\">\n            <div>Id 000001111 (UZI-NR-PERS), Peter van Pulver</div>\n          </div>"
      },
      "identifier": [ {
        "system": "http://fhir.nl/fhir/NamingSystem/uzi-nr-pers",
        "value": "000001111"
      } ],
      "name": [ {
        "use": "official",
        "text": "Peter van Pulver",
        "family": "van Pulver",
        "_family": {
          "extension": [ {
            "url": "http://hl7.org/fhir/StructureDefinition/humanname-own-prefix",
            "valueString": "van"
          }, {
            "url": "http://hl7.org/fhir/StructureDefinition/humanname-own-name",
            "valueString": "Pulver"
          } ]
        },
        "given": [ "Peter" ],
        "_given": [ {
          "extension": [ {
            "url": "http://hl7.org/fhir/StructureDefinition/iso21090-EN-qualifier",
            "valueCode": "BR"
          } ]
        } ]
      } ]
    },
    "request": {
      "method": "POST",
      "url": "Practitioner"
    }
  }, {
    "fullUrl": "urn:uuid:7fa869d8-6b44-11ec-0000-020000000000",
    "resource": {
      "resourceType": "Organization",
      "meta": {
        "profile": [ "http://nictiz.nl/fhir/StructureDefinition/nl-core-HealthcareProvider-Organization" ]
      },
      "text": {
        "status": "extensions",
        "div": "<div xmlns=\"http://www.w3.org/1999/xhtml\">\n            <table>\n              <caption>Organisatie. Id: 00001111 (URA)</caption>\n              <tbody>\n                <tr>\n                  <th>Naam</th>\n                  <td>Huisartsenpraktijk Pulver &amp; Partners</td>\n                </tr>\n                <tr>\n                  <th>Adres</th>\n                  <td>Dorpsstraat 1, 1234AA Ons Dorp (Werk)</td>\n                </tr>\n              </tbody>\n            </table>\n          </div>"
      },
      "identifier": [ {
        "system": "http://fhir.nl/fhir/NamingSystem/ura",
        "value": "00001111"
      } ],
      "name": "Huisartsenpraktijk Pulver & Partners",
      "address": [ {
        "extension": [ {
          "url": "http://nictiz.nl/fhir/StructureDefinition/ext-AddressInformation.AddressType",
          "valueCodeableConcept": {
            "coding": [ {
              "system": "http://terminology.hl7.org/CodeSystem/v3-AddressUse",
              "code": "WP",
              "display": "Werkadres"
            } ]
          }
        } ],
        "use": "work",
        "line": [ "Dorpsstraat 1" ],
        "_line": [ {
          "extension": [ {
            "url": "http://hl7.org/fhir/StructureDefinition/iso21090-ADXP-streetName",
            "valueString": "Dorpsstraat"
          }, {
            "url": "http://hl7.org/fhir/StructureDefinition/iso21090-ADXP-houseNumber",
            "valueString": "1"
          } ]
        } ],
        "city": "Ons Dorp",
        "postalCode": "1234AA"
      } ]
    },
    "request": {
      "method": "POST",
      "url": "Organization"
    }
  }, {
    "fullUrl": "urn:uuid:f543951d-6b24-11ec-0000-020000000000",
    "resource": {
      "resourceType": "Medication",
      "meta": {
        "profile": [ "http://nictiz.nl/fhir/StructureDefinition/mp-PharmaceuticalProduct" ]
      },
      "text": {
        "status": "extensions",
        "div": "<div xmlns=\"http://www.w3.org/1999/xhtml\">\n            <table>\n              <tbody>\n                <tr>\n                  <th>Code</th>\n                  <td>\n                    <span title=\"METOCLOPRAMIDE HCL PCH TABLET 10MG (560308 - G-Standaard HPK)\">METOCLOPRAMIDE HCL PCH TABLET 10MG</span>\n                  </td>\n                </tr>\n              </tbody>\n            </table>\n          </div>"
      },
      "code": {
        "coding": [ {
          "system": "urn:oid:2.16.840.1.113883.2.4.4.7",
          "code": "560308",
          "display": "METOCLOPRAMIDE HCL PCH TABLET 10MG",
          "userSelected": true
        }, {
          "system": "urn:oid:2.16.840.1.113883.2.4.4.10",
          "code": "6947",
          "display": "METOCLOPRAMIDE TABLET 10MG"
        }, {
          "system": "urn:oid:2.16.840.1.113883.2.4.4.1",
          "code": "19429",
          "display": "METOCLOPRAMIDE TABLET 10MG"
        } ],
        "text": "METOCLOPRAMIDE HCL PCH TABLET 10MG"
      }
    },
    "request": {
      "method": "POST",
      "url": "Medication"
    }
  }, {
    "fullUrl": "urn:uuid:dc02ff1d-6a9c-11ec-0000-020000000000",
    "resource": {
      "resourceType": "Medication",
      "meta": {
        "profile": [ "http://nictiz.nl/fhir/StructureDefinition/mp-PharmaceuticalProduct" ]
      },
      "text": {
        "status": "extensions",
        "div": "<div xmlns=\"http://www.w3.org/1999/xhtml\">\n            <table>\n              <tbody>\n                <tr>\n                  <th>Code</th>\n                  <td>\n                    <span title=\"LISINOPRIL 10MG TABLET (26638 - G-Standaard PRK)\">LISINOPRIL 10MG TABLET</span>\n                  </td>\n                </tr>\n              </tbody>\n            </table>\n          </div>"
      },
      "code": {
        "coding": [ {
          "system": "urn:oid:2.16.840.1.113883.2.4.4.10",
          "code": "26638",
          "display": "LISINOPRIL 10MG TABLET",
          "userSelected": true
        }, {
          "system": "urn:oid:2.16.840.1.113883.2.4.4.1",
          "code": "71587",
          "display": "LISINOPRIL 10MG TABLET"
        } ],
        "text": "LISINOPRIL 10MG TABLET"
      }
    },
    "request": {
      "method": "POST",
      "url": "Medication"
    }
  }, {
    "fullUrl": "urn:uuid:abb8231d-6b39-11ec-0000-020000000000",
    "resource": {
      "resourceType": "Medication",
      "meta": {
        "profile": [ "http://nictiz.nl/fhir/StructureDefinition/mp-PharmaceuticalProduct" ]
      },
      "text": {
        "status": "extensions",
        "div": "<div xmlns=\"http://www.w3.org/1999/xhtml\">\n            <table>\n              <tbody>\n                <tr>\n                  <th>Code</th>\n                  <td>\n                    <span title=\"ROTER APC TABLET (202185 - G-Standaard HPK)\">ROTER APC TABLET</span>\n                  </td>\n                </tr>\n              </tbody>\n            </table>\n          </div>"
      },
      "code": {
        "coding": [ {
          "system": "urn:oid:2.16.840.1.113883.2.4.4.7",
          "code": "202185",
          "display": "ROTER APC TABLET",
          "userSelected": true
        }, {
          "system": "urn:oid:2.16.840.1.113883.2.4.4.10",
          "code": "3891",
          "display": "ACETYLSALICYLZUUR/PARACETAMOL/COF TAB 250/250/50MG"
        }, {
          "system": "urn:oid:2.16.840.1.113883.2.4.4.1",
          "code": "61433",
          "display": "ACETYLSALICYLZUUR/PARACETAMOL/COF TAB 250/250/50MG"
        } ],
        "text": "ROTER APC TABLET"
      }
    },
    "request": {
      "method": "POST",
      "url": "Medication"
    }
  }, {
    "fullUrl": "urn:uuid:6b7d6104-6b5e-11ec-0000-020000000000",
    "resource": {
      "resourceType": "Medication",
      "meta": {
        "profile": [ "http://nictiz.nl/fhir/StructureDefinition/mp-PharmaceuticalProduct" ]
      },
      "text": {
        "status": "extensions",
        "div": "<div xmlns=\"http://www.w3.org/1999/xhtml\">\n            <table>\n              <tbody>\n                <tr>\n                  <th>Code</th>\n                  <td>\n                    <span title=\"PANTOPRAZOL TABLET MSR 20MG (52272 - G-Standaard PRK)\">PANTOPRAZOL TABLET MSR 20MG</span>\n                  </td>\n                </tr>\n              </tbody>\n            </table>\n          </div>"
      },
      "code": {
        "coding": [ {
          "system": "urn:oid:2.16.840.1.113883.2.4.4.10",
          "code": "52272",
          "display": "PANTOPRAZOL TABLET MSR 20MG",
          "userSelected": true
        }, {
          "system": "urn:oid:2.16.840.1.113883.2.4.4.1",
          "code": "106275",
          "display": "PANTOPRAZOL TABLET MSR 20MG"
        } ],
        "text": "PANTOPRAZOL TABLET MSR 20MG"
      }
    },
    "request": {
      "method": "POST",
      "url": "Medication"
    }
  }, {
    "fullUrl": "urn:uuid:501c9f1d-6b1e-11ec-0000-020000000000",
    "resource": {
      "resourceType": "Medication",
      "meta": {
        "profile": [ "http://nictiz.nl/fhir/StructureDefinition/mp-PharmaceuticalProduct" ]
      },
      "text": {
        "status": "extensions",
        "div": "<div xmlns=\"http://www.w3.org/1999/xhtml\">\n            <table>\n              <tbody>\n                <tr>\n                  <th>Code</th>\n                  <td>\n                    <span title=\"FLUTICASON INHALATIEPOEDER 100UG/DO 60DO DISKUS (45624 - G-Standaard PRK)\">FLUTICASON INHALATIEPOEDER 100UG/DO 60DO DISKUS</span>\n                  </td>\n                </tr>\n              </tbody>\n            </table>\n          </div>"
      },
      "code": {
        "coding": [ {
          "system": "urn:oid:2.16.840.1.113883.2.4.4.10",
          "code": "45624",
          "display": "FLUTICASON INHALATIEPOEDER 100UG/DO 60DO DISKUS",
          "userSelected": true
        }, {
          "system": "urn:oid:2.16.840.1.113883.2.4.4.1",
          "code": "92487",
          "display": "FLUTICASON INHALATIEPOEDER 100UG/DO"
        } ],
        "text": "FLUTICASON INHALATIEPOEDER 100UG/DO 60DO DISKUS"
      }
    },
    "request": {
      "method": "POST",
      "url": "Medication"
    }
  } ]
}