<Bundle xmlns="http://hl7.org/fhir">
  <id value="mg-mp-mg-tst-VV-Scenarioset7-v30"/>
  <type value="transaction"/>
  <entry>
    <fullUrl value="urn:uuid:3aea0abd-6a97-11ec-0000-020000000000"/>
    <resource>
      <MedicationRequest>
        <meta>
          <profile value="http://nictiz.nl/fhir/StructureDefinition/mp-DispenseRequest"/>
        </meta>
        <text>
          <status value="extensions"/>
          <div xmlns="http://www.w3.org/1999/xhtml">
            <table>
              <caption>MedicationRequest. Subject: Patient, M. van de XXX_Rambaran Mishre. Id: MBH_300_magistraalalleingredienten_VV (urn:oid:2.16.840.1.113883.2.4.3.11.999.77.52711000146108.1), Categorie: <span title="verstrekkingsverzoek (52711000146108 - SNOMED CT)">verstrekkingsverzoek</span>, Status: onbekend<span style="display: block;">Intentie: aanvraag</span>
                <span style="display: block;">Aangevraagd door: Healthcare professional (role), Peter van Pulver, Huisartsen, niet nader gespecificeerd, Huisartsenpraktijk Pulver &amp; Partners</span>
              </caption>
              <tbody>
                <tr>
                  <th>Gebaseerd op</th>
                  <td>relatie naar medicatieafspraak  met identificatie: MBH_300_magistraalalleingredienten_MA || 2.16.840.1.113883.2.4.3.11.999.77.16076005.1 (Id: MBH_300_magistraalalleingredienten_MA (urn:oid:2.16.840.1.113883.2.4.3.11.999.77.16076005.1))</td>
                </tr>
                <tr>
                  <th>Medicatie</th>
                  <td>overig</td>
                </tr>
                <tr>
                  <th>Gemaakt</th>
                  <td>${DATE, T, D, +0}T12:00:00+02:00</td>
                </tr>
                <tr>
                  <th>Toedieningsverzoek</th>
                  <td>
                    <div>Hoeveelheid: </div>
                  </td>
                </tr>
              </tbody>
            </table>
          </div>
        </text>
        <extension url="http://nictiz.nl/fhir/StructureDefinition/ext-PharmaceuticalTreatment.Identifier">
          <valueIdentifier>
            <system value="urn:oid:2.16.840.1.113883.2.4.3.11.999.77.1.1"/>
            <value value="MBH_300_magistraalalleingredienten"/>
          </valueIdentifier>
        </extension>
        <identifier>
          <system value="urn:oid:2.16.840.1.113883.2.4.3.11.999.77.52711000146108.1"/>
          <value value="MBH_300_magistraalalleingredienten_VV"/>
        </identifier>
        <status value="unknown"/>
        <intent value="order"/>
        <category>
          <coding>
            <system value="http://snomed.info/sct"/>
            <code value="52711000146108"/>
            <display value="verstrekkingsverzoek"/>
          </coding>
        </category>
        <medicationReference>
          <reference value="urn:uuid:3f743d1d-6ae4-11ec-0000-020000000000"/>
          <type value="Medication"/>
          <display value="overig"/>
        </medicationReference>
        <subject>
          <reference value="urn:uuid:758f80d2-6b35-11ec-0000-020000000000"/>
          <type value="Patient"/>
          <display value="Patient, M. van de XXX_Rambaran Mishre"/>
        </subject>
        <authoredOn value="${DATE, T, D, +0}T12:00:00+02:00"/>
        <requester>
          <reference value="urn:uuid:36322824-6aed-11ec-0000-020000000000"/>
          <type value="PractitionerRole"/>
          <display value="Healthcare professional (role), Peter van Pulver, Huisartsen, niet nader gespecificeerd, Huisartsenpraktijk Pulver &amp; Partners"/>
        </requester>
        <performer>
          <reference value="urn:uuid:98d231d8-6b0c-11ec-0000-020000000000"/>
          <type value="Organization"/>
          <display value="Healthcare provider (organization), Apotheek De Gulle Gaper"/>
        </performer>
        <basedOn>
          <type value="MedicationRequest"/>
          <identifier>
            <system value="urn:oid:2.16.840.1.113883.2.4.3.11.999.77.16076005.1"/>
            <value value="MBH_300_magistraalalleingredienten_MA"/>
          </identifier>
          <display value="relatie naar medicatieafspraak  met identificatie: MBH_300_magistraalalleingredienten_MA || 2.16.840.1.113883.2.4.3.11.999.77.16076005.1"/>
        </basedOn>
        <dispenseRequest>
          <quantity>
            <extension url="http://hl7.org/fhir/StructureDefinition/iso21090-PQ-translation">
              <valueQuantity>
                <value value="100"/>
                <unit value="milliliter"/>
                <system value="urn:oid:2.16.840.1.113883.2.4.4.1.900.2"/>
                <code value="233"/>
              </valueQuantity>
            </extension>
            <value value="100"/>
            <unit value="milliliter"/>
            <system value="http://unitsofmeasure.org"/>
            <code value="ml"/>
          </quantity>
        </dispenseRequest>
      </MedicationRequest>
    </resource>
    <request>
      <method value="POST"/>
      <url value="MedicationRequest"/>
    </request>
  </entry>
  <entry>
    <fullUrl value="urn:uuid:3be6ed3d-6ad7-11ec-0000-020000000000"/>
    <resource>
      <MedicationRequest>
        <meta>
          <profile value="http://nictiz.nl/fhir/StructureDefinition/mp-DispenseRequest"/>
        </meta>
        <text>
          <status value="extensions"/>
          <div xmlns="http://www.w3.org/1999/xhtml">
            <table>
              <caption>MedicationRequest. Subject: Patient, M. van de XXX_Rambaran Mishre. Id: MBH_300_magistraalactieveingredient_VV (urn:oid:2.16.840.1.113883.2.4.3.11.999.77.52711000146108.1), Categorie: <span title="verstrekkingsverzoek (52711000146108 - SNOMED CT)">verstrekkingsverzoek</span>, Status: onbekend<span style="display: block;">Intentie: aanvraag</span>
                <span style="display: block;">Aangevraagd door: Healthcare professional (role), Peter van Pulver, Huisartsen, niet nader gespecificeerd, Huisartsenpraktijk Pulver &amp; Partners</span>
              </caption>
              <tbody>
                <tr>
                  <th>Gebaseerd op</th>
                  <td>relatie naar medicatieafspraak  met identificatie: MBH_300_magistraalactieveingredient_MA || 2.16.840.1.113883.2.4.3.11.999.77.16076005.1 (Id: MBH_300_magistraalactieveingredient_MA (urn:oid:2.16.840.1.113883.2.4.3.11.999.77.16076005.1))</td>
                </tr>
                <tr>
                  <th>Medicatie</th>
                  <td>overig</td>
                </tr>
                <tr>
                  <th>Gemaakt</th>
                  <td>${DATE, T, D, +0}T12:05:00+02:00</td>
                </tr>
                <tr>
                  <th>Toedieningsverzoek</th>
                  <td>
                    <div>Hoeveelheid: </div>
                  </td>
                </tr>
              </tbody>
            </table>
          </div>
        </text>
        <extension url="http://nictiz.nl/fhir/StructureDefinition/ext-PharmaceuticalTreatment.Identifier">
          <valueIdentifier>
            <system value="urn:oid:2.16.840.1.113883.2.4.3.11.999.77.1.1"/>
            <value value="MBH_300_magistraalactieveingredient"/>
          </valueIdentifier>
        </extension>
        <identifier>
          <system value="urn:oid:2.16.840.1.113883.2.4.3.11.999.77.52711000146108.1"/>
          <value value="MBH_300_magistraalactieveingredient_VV"/>
        </identifier>
        <status value="unknown"/>
        <intent value="order"/>
        <category>
          <coding>
            <system value="http://snomed.info/sct"/>
            <code value="52711000146108"/>
            <display value="verstrekkingsverzoek"/>
          </coding>
        </category>
        <medicationReference>
          <reference value="urn:uuid:8c8bfb04-6b21-11ec-0000-020000000000"/>
          <type value="Medication"/>
          <display value="overig"/>
        </medicationReference>
        <subject>
          <reference value="urn:uuid:758f80d2-6b35-11ec-0000-020000000000"/>
          <type value="Patient"/>
          <display value="Patient, M. van de XXX_Rambaran Mishre"/>
        </subject>
        <authoredOn value="${DATE, T, D, +0}T12:05:00+02:00"/>
        <requester>
          <reference value="urn:uuid:36322824-6aed-11ec-0000-020000000000"/>
          <type value="PractitionerRole"/>
          <display value="Healthcare professional (role), Peter van Pulver, Huisartsen, niet nader gespecificeerd, Huisartsenpraktijk Pulver &amp; Partners"/>
        </requester>
        <performer>
          <reference value="urn:uuid:98d231d8-6b0c-11ec-0000-020000000000"/>
          <type value="Organization"/>
          <display value="Healthcare provider (organization), Apotheek De Gulle Gaper"/>
        </performer>
        <basedOn>
          <type value="MedicationRequest"/>
          <identifier>
            <system value="urn:oid:2.16.840.1.113883.2.4.3.11.999.77.16076005.1"/>
            <value value="MBH_300_magistraalactieveingredient_MA"/>
          </identifier>
          <display value="relatie naar medicatieafspraak  met identificatie: MBH_300_magistraalactieveingredient_MA || 2.16.840.1.113883.2.4.3.11.999.77.16076005.1"/>
        </basedOn>
        <dispenseRequest>
          <quantity>
            <extension url="http://hl7.org/fhir/StructureDefinition/iso21090-PQ-translation">
              <valueQuantity>
                <value value="100"/>
                <unit value="gram"/>
                <system value="urn:oid:2.16.840.1.113883.2.4.4.1.900.2"/>
                <code value="215"/>
              </valueQuantity>
            </extension>
            <value value="100"/>
            <unit value="gram"/>
            <system value="http://unitsofmeasure.org"/>
            <code value="g"/>
          </quantity>
        </dispenseRequest>
      </MedicationRequest>
    </resource>
    <request>
      <method value="POST"/>
      <url value="MedicationRequest"/>
    </request>
  </entry>
  <entry>
    <fullUrl value="urn:uuid:ec519289-6ac2-11ec-0000-020000000000"/>
    <resource>
      <MedicationRequest>
        <meta>
          <profile value="http://nictiz.nl/fhir/StructureDefinition/mp-DispenseRequest"/>
        </meta>
        <text>
          <status value="extensions"/>
          <div xmlns="http://www.w3.org/1999/xhtml">
            <table>
              <caption>MedicationRequest. Subject: Patient, M. van de XXX_Rambaran Mishre. Id: MBH_300_magistraal90miljoennr_VV (urn:oid:2.16.840.1.113883.2.4.3.11.999.77.52711000146108.1), Categorie: <span title="verstrekkingsverzoek (52711000146108 - SNOMED CT)">verstrekkingsverzoek</span>, Status: onbekend<span style="display: block;">Intentie: aanvraag</span>
                <span style="display: block;">Aangevraagd door: Healthcare professional (role), Peter van Pulver, Huisartsen, niet nader gespecificeerd, Huisartsenpraktijk Pulver &amp; Partners</span>
              </caption>
              <tbody>
                <tr>
                  <th>Gebaseerd op</th>
                  <td>relatie naar medicatieafspraak  met identificatie: MBH_300_magistraal90miljoennr_MA || 2.16.840.1.113883.2.4.3.11.999.77.16076005.1 (Id: MBH_300_magistraal90miljoennr_MA (urn:oid:2.16.840.1.113883.2.4.3.11.999.77.16076005.1))</td>
                </tr>
                <tr>
                  <th>Medicatie</th>
                  <td>Eigen artikel: ureumzalf</td>
                </tr>
                <tr>
                  <th>Gemaakt</th>
                  <td>${DATE, T, D, +0}T12:08:00+02:00</td>
                </tr>
                <tr>
                  <th>Toedieningsverzoek</th>
                  <td>
                    <div>Hoeveelheid: </div>
                  </td>
                </tr>
              </tbody>
            </table>
          </div>
        </text>
        <extension url="http://nictiz.nl/fhir/StructureDefinition/ext-PharmaceuticalTreatment.Identifier">
          <valueIdentifier>
            <system value="urn:oid:2.16.840.1.113883.2.4.3.11.999.77.1.1"/>
            <value value="MBH_300_magistraal90miljoennr"/>
          </valueIdentifier>
        </extension>
        <identifier>
          <system value="urn:oid:2.16.840.1.113883.2.4.3.11.999.77.52711000146108.1"/>
          <value value="MBH_300_magistraal90miljoennr_VV"/>
        </identifier>
        <status value="unknown"/>
        <intent value="order"/>
        <category>
          <coding>
            <system value="http://snomed.info/sct"/>
            <code value="52711000146108"/>
            <display value="verstrekkingsverzoek"/>
          </coding>
        </category>
        <medicationReference>
          <reference value="urn:uuid:f74cdd04-6b18-11ec-0000-020000000000"/>
          <type value="Medication"/>
          <display value="Eigen artikel: ureumzalf"/>
        </medicationReference>
        <subject>
          <reference value="urn:uuid:758f80d2-6b35-11ec-0000-020000000000"/>
          <type value="Patient"/>
          <display value="Patient, M. van de XXX_Rambaran Mishre"/>
        </subject>
        <authoredOn value="${DATE, T, D, +0}T12:08:00+02:00"/>
        <requester>
          <reference value="urn:uuid:36322824-6aed-11ec-0000-020000000000"/>
          <type value="PractitionerRole"/>
          <display value="Healthcare professional (role), Peter van Pulver, Huisartsen, niet nader gespecificeerd, Huisartsenpraktijk Pulver &amp; Partners"/>
        </requester>
        <performer>
          <reference value="urn:uuid:98d231d8-6b0c-11ec-0000-020000000000"/>
          <type value="Organization"/>
          <display value="Healthcare provider (organization), Apotheek De Gulle Gaper"/>
        </performer>
        <basedOn>
          <type value="MedicationRequest"/>
          <identifier>
            <system value="urn:oid:2.16.840.1.113883.2.4.3.11.999.77.16076005.1"/>
            <value value="MBH_300_magistraal90miljoennr_MA"/>
          </identifier>
          <display value="relatie naar medicatieafspraak  met identificatie: MBH_300_magistraal90miljoennr_MA || 2.16.840.1.113883.2.4.3.11.999.77.16076005.1"/>
        </basedOn>
        <dispenseRequest>
          <quantity>
            <extension url="http://hl7.org/fhir/StructureDefinition/iso21090-PQ-translation">
              <valueQuantity>
                <value value="100"/>
                <unit value="gram"/>
                <system value="urn:oid:2.16.840.1.113883.2.4.4.1.900.2"/>
                <code value="215"/>
              </valueQuantity>
            </extension>
            <value value="100"/>
            <unit value="gram"/>
            <system value="http://unitsofmeasure.org"/>
            <code value="g"/>
          </quantity>
        </dispenseRequest>
      </MedicationRequest>
    </resource>
    <request>
      <method value="POST"/>
      <url value="MedicationRequest"/>
    </request>
  </entry>
  <entry>
    <fullUrl value="urn:uuid:758f80d2-6b35-11ec-0000-020000000000"/>
    <resource>
      <Patient>
        <meta>
          <profile value="http://nictiz.nl/fhir/StructureDefinition/nl-core-Patient"/>
        </meta>
        <text>
          <status value="extensions"/>
          <div xmlns="http://www.w3.org/1999/xhtml">
            <div>Id 999900948 (BSN), <span title="Naamsamenstelling: Eigennaam">M. van de XXX_Rambaran Mishre</span>, Man, 8 november 1985</div>
          </div>
        </text>
        <identifier>
          <system value="http://fhir.nl/fhir/NamingSystem/bsn"/>
          <value value="999900948"/>
        </identifier>
        <name>
          <extension url="http://hl7.org/fhir/StructureDefinition/humanname-assembly-order">
            <valueCode value="NL1"/>
          </extension>
          <use value="official"/>
          <text value="M. van de XXX_Rambaran Mishre"/>
          <family value="van de XXX_Rambaran Mishre">
            <extension url="http://hl7.org/fhir/StructureDefinition/humanname-own-prefix">
              <valueString value="van de"/>
            </extension>
            <extension url="http://hl7.org/fhir/StructureDefinition/humanname-own-name">
              <valueString value="XXX_Rambaran Mishre"/>
            </extension>
          </family>
          <given value="M.">
            <extension url="http://hl7.org/fhir/StructureDefinition/iso21090-EN-qualifier">
              <valueCode value="IN"/>
            </extension>
          </given>
        </name>
        <gender value="male">
          <extension url="http://nictiz.nl/fhir/StructureDefinition/ext-CodeSpecification">
            <valueCodeableConcept>
              <coding>
                <system value="http://terminology.hl7.org/CodeSystem/v3-AdministrativeGender"/>
                <code value="M"/>
                <display value="Man"/>
              </coding>
            </valueCodeableConcept>
          </extension>
        </gender>
        <birthDate value="1985-11-08"/>
      </Patient>
    </resource>
    <request>
      <method value="POST"/>
      <url value="Patient"/>
    </request>
  </entry>
  <entry>
    <fullUrl value="urn:uuid:36322824-6aed-11ec-0000-020000000000"/>
    <resource>
      <PractitionerRole>
        <meta>
          <profile value="http://nictiz.nl/fhir/StructureDefinition/nl-core-HealthProfessional-PractitionerRole"/>
        </meta>
        <text>
          <status value="extensions"/>
          <div xmlns="http://www.w3.org/1999/xhtml">
            <table>
              <caption>Zorgverlenerrol. </caption>
              <tbody>
                <tr>
                  <th>Zorgverlener</th>
                  <td>
                    <div>Healthcare professional (person), Peter van Pulver</div>
                    <div>Healthcare provider (organization), Huisartsenpraktijk Pulver &amp; Partners</div>
                  </td>
                </tr>
                <tr>
                  <th>Specialisme</th>
                  <td>
                    <span title="Huisartsen, niet nader gespecificeerd (0100 - AGB-medisch specialisme)">Huisartsen, niet nader gespecificeerd</span>
                  </td>
                </tr>
              </tbody>
            </table>
          </div>
        </text>
        <practitioner>
          <reference value="urn:uuid:4a573558-6ad5-11ec-0000-020000000000"/>
          <type value="Practitioner"/>
          <display value="Healthcare professional (person), Peter van Pulver"/>
        </practitioner>
        <organization>
          <reference value="urn:uuid:7fa869d8-6b44-11ec-0000-020000000000"/>
          <type value="Organization"/>
          <display value="Healthcare provider (organization), Huisartsenpraktijk Pulver &amp; Partners"/>
        </organization>
        <specialty>
          <coding>
            <system value="urn:oid:2.16.840.1.113883.2.4.6.7"/>
            <version value="2020-10-23T00:00:00"/>
            <code value="0100"/>
            <display value="Huisartsen, niet nader gespecificeerd"/>
          </coding>
        </specialty>
      </PractitionerRole>
    </resource>
    <request>
      <method value="POST"/>
      <url value="PractitionerRole"/>
    </request>
  </entry>
  <entry>
    <fullUrl value="urn:uuid:4a573558-6ad5-11ec-0000-020000000000"/>
    <resource>
      <Practitioner>
        <meta>
          <profile value="http://nictiz.nl/fhir/StructureDefinition/nl-core-HealthProfessional-Practitioner"/>
        </meta>
        <text>
          <status value="extensions"/>
          <div xmlns="http://www.w3.org/1999/xhtml">
            <div>Id 000001111 (UZI-NR-PERS), Peter van Pulver</div>
          </div>
        </text>
        <identifier>
          <system value="http://fhir.nl/fhir/NamingSystem/uzi-nr-pers"/>
          <value value="000001111"/>
        </identifier>
        <name>
          <use value="official"/>
          <text value="Peter van Pulver"/>
          <family value="van Pulver">
            <extension url="http://hl7.org/fhir/StructureDefinition/humanname-own-prefix">
              <valueString value="van"/>
            </extension>
            <extension url="http://hl7.org/fhir/StructureDefinition/humanname-own-name">
              <valueString value="Pulver"/>
            </extension>
          </family>
          <given value="Peter">
            <extension url="http://hl7.org/fhir/StructureDefinition/iso21090-EN-qualifier">
              <valueCode value="BR"/>
            </extension>
          </given>
        </name>
      </Practitioner>
    </resource>
    <request>
      <method value="POST"/>
      <url value="Practitioner"/>
    </request>
  </entry>
  <entry>
    <fullUrl value="urn:uuid:98d231d8-6b0c-11ec-0000-020000000000"/>
    <resource>
      <Organization>
        <meta>
          <profile value="http://nictiz.nl/fhir/StructureDefinition/nl-core-HealthcareProvider-Organization"/>
        </meta>
        <text>
          <status value="extensions"/>
          <div xmlns="http://www.w3.org/1999/xhtml">
            <table>
              <caption>Organisatie. Id: 01236578 (URA)</caption>
              <tbody>
                <tr>
                  <th>Naam</th>
                  <td>Apotheek De Gulle Gaper</td>
                </tr>
              </tbody>
            </table>
          </div>
        </text>
        <identifier>
          <system value="http://fhir.nl/fhir/NamingSystem/ura"/>
          <value value="01236578"/>
        </identifier>
        <name value="Apotheek De Gulle Gaper"/>
      </Organization>
    </resource>
    <request>
      <method value="POST"/>
      <url value="Organization"/>
    </request>
  </entry>
  <entry>
    <fullUrl value="urn:uuid:7fa869d8-6b44-11ec-0000-020000000000"/>
    <resource>
      <Organization>
        <meta>
          <profile value="http://nictiz.nl/fhir/StructureDefinition/nl-core-HealthcareProvider-Organization"/>
        </meta>
        <text>
          <status value="extensions"/>
          <div xmlns="http://www.w3.org/1999/xhtml">
            <table>
              <caption>Organisatie. Id: 00001111 (URA)</caption>
              <tbody>
                <tr>
                  <th>Naam</th>
                  <td>Huisartsenpraktijk Pulver &amp; Partners</td>
                </tr>
                <tr>
                  <th>Adres</th>
                  <td>Dorpsstraat 1, 1234AA Ons Dorp (Werk)</td>
                </tr>
              </tbody>
            </table>
          </div>
        </text>
        <identifier>
          <system value="http://fhir.nl/fhir/NamingSystem/ura"/>
          <value value="00001111"/>
        </identifier>
        <name value="Huisartsenpraktijk Pulver &amp; Partners"/>
        <address>
          <extension url="http://nictiz.nl/fhir/StructureDefinition/ext-AddressInformation.AddressType">
            <valueCodeableConcept>
              <coding>
                <system value="http://terminology.hl7.org/CodeSystem/v3-AddressUse"/>
                <code value="WP"/>
                <display value="Werkadres"/>
              </coding>
            </valueCodeableConcept>
          </extension>
          <use value="work"/>
          <line value="Dorpsstraat 1">
            <extension url="http://hl7.org/fhir/StructureDefinition/iso21090-ADXP-streetName">
              <valueString value="Dorpsstraat"/>
            </extension>
            <extension url="http://hl7.org/fhir/StructureDefinition/iso21090-ADXP-houseNumber">
              <valueString value="1"/>
            </extension>
          </line>
          <city value="Ons Dorp"/>
          <postalCode value="1234AA"/>
        </address>
      </Organization>
    </resource>
    <request>
      <method value="POST"/>
      <url value="Organization"/>
    </request>
  </entry>
  <entry>
    <fullUrl value="urn:uuid:3f743d1d-6ae4-11ec-0000-020000000000"/>
    <resource>
      <Medication>
        <meta>
          <profile value="http://nictiz.nl/fhir/StructureDefinition/mp-PharmaceuticalProduct"/>
        </meta>
        <text>
          <status value="extensions"/>
          <div xmlns="http://www.w3.org/1999/xhtml">
            <table>
              <tbody>
                <tr>
                  <th>Code</th>
                  <td>
                    <span title="overig (OTH - http://terminology.hl7.org/CodeSystem/v3-NullFlavor)">overig</span>
                  </td>
                  <th>Ingredients</th>
                  <td>
                    <ul>
                      <li>
                        <span title="UREUM ZALF 10% FAGRON (1042467 - G-Standaard HPK)">UREUM ZALF 10% FAGRON</span>
                      </li>
                      <li>
                        <span title="EUCERINE MET WATER FAGRON (1516981 - G-Standaard HPK)">EUCERINE MET WATER FAGRON</span>
                      </li>
                    </ul>
                  </td>
                </tr>
              </tbody>
            </table>
          </div>
        </text>
        <extension url="http://nictiz.nl/fhir/StructureDefinition/ext-PharmaceuticalProduct.Description">
          <valueString value="Titel: Ureum 10% in eucerine cum aqua 100gr           Regel: UREUM 10gr           Regel: EUCERINE MET WATER FAGRON ad 100gr"/>
        </extension>
        <code>
          <coding>
            <system value="http://terminology.hl7.org/CodeSystem/v3-NullFlavor"/>
            <code value="OTH"/>
            <display value="overig"/>
          </coding>
          <text value="Ureum 10% in eucerine cum aqua 100gr"/>
        </code>
        <ingredient>
          <itemCodeableConcept>
            <coding>
              <system value="urn:oid:2.16.840.1.113883.2.4.4.7"/>
              <code value="1042467"/>
              <display value="UREUM ZALF 10% FAGRON"/>
            </coding>
          </itemCodeableConcept>
          <strength>
            <numerator>
              <extension url="http://hl7.org/fhir/StructureDefinition/iso21090-PQ-translation">
                <valueQuantity>
                  <value value="10"/>
                  <unit value="gram"/>
                  <system value="urn:oid:2.16.840.1.113883.2.4.4.1.900.2"/>
                  <code value="215"/>
                </valueQuantity>
              </extension>
              <value value="10"/>
              <unit value="gram"/>
              <system value="http://unitsofmeasure.org"/>
              <code value="g"/>
            </numerator>
            <denominator>
              <extension url="http://hl7.org/fhir/StructureDefinition/iso21090-PQ-translation">
                <valueQuantity>
                  <value value="100"/>
                  <unit value="gram"/>
                  <system value="urn:oid:2.16.840.1.113883.2.4.4.1.900.2"/>
                  <code value="215"/>
                </valueQuantity>
              </extension>
              <value value="100"/>
              <unit value="gram"/>
              <system value="http://unitsofmeasure.org"/>
              <code value="g"/>
            </denominator>
          </strength>
        </ingredient>
        <ingredient>
          <itemCodeableConcept>
            <coding>
              <system value="urn:oid:2.16.840.1.113883.2.4.4.7"/>
              <code value="1516981"/>
              <display value="EUCERINE MET WATER FAGRON"/>
            </coding>
          </itemCodeableConcept>
          <strength>
            <numerator>
              <extension url="http://hl7.org/fhir/StructureDefinition/iso21090-PQ-translation">
                <valueQuantity>
                  <value value="90"/>
                  <unit value="gram"/>
                  <system value="urn:oid:2.16.840.1.113883.2.4.4.1.900.2"/>
                  <code value="215"/>
                </valueQuantity>
              </extension>
              <value value="90"/>
              <unit value="gram"/>
              <system value="http://unitsofmeasure.org"/>
              <code value="g"/>
            </numerator>
            <denominator>
              <extension url="http://hl7.org/fhir/StructureDefinition/iso21090-PQ-translation">
                <valueQuantity>
                  <value value="100"/>
                  <unit value="gram"/>
                  <system value="urn:oid:2.16.840.1.113883.2.4.4.1.900.2"/>
                  <code value="215"/>
                </valueQuantity>
              </extension>
              <value value="100"/>
              <unit value="gram"/>
              <system value="http://unitsofmeasure.org"/>
              <code value="g"/>
            </denominator>
          </strength>
        </ingredient>
      </Medication>
    </resource>
    <request>
      <method value="POST"/>
      <url value="Medication"/>
    </request>
  </entry>
  <entry>
    <fullUrl value="urn:uuid:8c8bfb04-6b21-11ec-0000-020000000000"/>
    <resource>
      <Medication>
        <meta>
          <profile value="http://nictiz.nl/fhir/StructureDefinition/mp-PharmaceuticalProduct"/>
        </meta>
        <text>
          <status value="extensions"/>
          <div xmlns="http://www.w3.org/1999/xhtml">
            <table>
              <tbody>
                <tr>
                  <th>Code</th>
                  <td>
                    <span title="overig (OTH - http://terminology.hl7.org/CodeSystem/v3-NullFlavor)">overig</span>
                  </td>
                  <th>Ingredients</th>
                  <td>
                    <ul>
                      <li>
                        <span title="CETOMACROGOLCREME FNA (457590 - G-Standaard HPK)">CETOMACROGOLCREME FNA</span>
                      </li>
                    </ul>
                  </td>
                </tr>
              </tbody>
            </table>
          </div>
        </text>
        <extension url="http://nictiz.nl/fhir/StructureDefinition/ext-PharmaceuticalProduct.Description">
          <valueString value="Titel: Vaseline 20% in cetomacrogolcrème FNA Regel 1: cetomacrogolcreme 80 gr"/>
        </extension>
        <code>
          <coding>
            <system value="http://terminology.hl7.org/CodeSystem/v3-NullFlavor"/>
            <code value="OTH"/>
            <display value="overig"/>
          </coding>
          <text value="Vaseline 20% in cetomacrogolcrème FNA"/>
        </code>
        <ingredient>
          <itemCodeableConcept>
            <coding>
              <system value="urn:oid:2.16.840.1.113883.2.4.4.7"/>
              <code value="457590"/>
              <display value="CETOMACROGOLCREME FNA"/>
            </coding>
          </itemCodeableConcept>
          <strength>
            <numerator>
              <extension url="http://hl7.org/fhir/StructureDefinition/iso21090-PQ-translation">
                <valueQuantity>
                  <value value="80"/>
                  <unit value="gram"/>
                  <system value="urn:oid:2.16.840.1.113883.2.4.4.1.900.2"/>
                  <code value="215"/>
                </valueQuantity>
              </extension>
              <value value="80"/>
              <unit value="gram"/>
              <system value="http://unitsofmeasure.org"/>
              <code value="g"/>
            </numerator>
            <denominator>
              <extension url="http://hl7.org/fhir/StructureDefinition/iso21090-PQ-translation">
                <valueQuantity>
                  <value value="100"/>
                  <unit value="gram"/>
                  <system value="urn:oid:2.16.840.1.113883.2.4.4.1.900.2"/>
                  <code value="215"/>
                </valueQuantity>
              </extension>
              <value value="100"/>
              <unit value="gram"/>
              <system value="http://unitsofmeasure.org"/>
              <code value="g"/>
            </denominator>
          </strength>
        </ingredient>
      </Medication>
    </resource>
    <request>
      <method value="POST"/>
      <url value="Medication"/>
    </request>
  </entry>
  <entry>
    <fullUrl value="urn:uuid:f74cdd04-6b18-11ec-0000-020000000000"/>
    <resource>
      <Medication>
        <meta>
          <profile value="http://nictiz.nl/fhir/StructureDefinition/mp-PharmaceuticalProduct"/>
        </meta>
        <text>
          <status value="extensions"/>
          <div xmlns="http://www.w3.org/1999/xhtml">
            <table>
              <tbody>
                <tr>
                  <th>Code</th>
                  <td>
                    <span title="Eigen artikel: ureumzalf (90000001 - 2.16.840.1.113883.2.4.3.11.9999.77.90000000.1.1111)">Eigen artikel: ureumzalf</span>
                  </td>
                  <th>Ingredients</th>
                  <td>
                    <ul>
                      <li>
                        <span title="UREUM ZALF 10% FAGRON (1042467 - G-Standaard HPK)">UREUM ZALF 10% FAGRON</span>
                      </li>
                    </ul>
                  </td>
                </tr>
              </tbody>
            </table>
          </div>
        </text>
        <extension url="http://nictiz.nl/fhir/StructureDefinition/ext-PharmaceuticalProduct.Description">
          <valueString value="Titel: Ureum 10% in eucerine cum aqua 100gr           Regel: UREUM 10gr           Regel: EUCERINE MET WATER FAGRON ad 100gr"/>
        </extension>
        <code>
          <coding>
            <system value="urn:oid:2.16.840.1.113883.2.4.3.11.9999.77.90000000.1.1111"/>
            <code value="90000001"/>
            <display value="Eigen artikel: ureumzalf"/>
          </coding>
          <text value="Ureum 10% in eucerine cum aqua 100gr"/>
        </code>
        <ingredient>
          <itemCodeableConcept>
            <coding>
              <system value="urn:oid:2.16.840.1.113883.2.4.4.7"/>
              <code value="1042467"/>
              <display value="UREUM ZALF 10% FAGRON"/>
            </coding>
          </itemCodeableConcept>
          <strength>
            <numerator>
              <extension url="http://hl7.org/fhir/StructureDefinition/iso21090-PQ-translation">
                <valueQuantity>
                  <value value="10"/>
                  <unit value="gram"/>
                  <system value="urn:oid:2.16.840.1.113883.2.4.4.1.900.2"/>
                  <code value="215"/>
                </valueQuantity>
              </extension>
              <value value="10"/>
              <unit value="gram"/>
              <system value="http://unitsofmeasure.org"/>
              <code value="g"/>
            </numerator>
            <denominator>
              <extension url="http://hl7.org/fhir/StructureDefinition/iso21090-PQ-translation">
                <valueQuantity>
                  <value value="100"/>
                  <unit value="gram"/>
                  <system value="urn:oid:2.16.840.1.113883.2.4.4.1.900.2"/>
                  <code value="215"/>
                </valueQuantity>
              </extension>
              <value value="100"/>
              <unit value="gram"/>
              <system value="http://unitsofmeasure.org"/>
              <code value="g"/>
            </denominator>
          </strength>
        </ingredient>
      </Medication>
    </resource>
    <request>
      <method value="POST"/>
      <url value="Medication"/>
    </request>
  </entry>
</Bundle>
