<Bundle xmlns="http://hl7.org/fhir">
  <id value="mg-mp-mg-tst-MA-Scenarioset3-v30"/>
  <type value="transaction"/>
  <entry>
    <fullUrl value="urn:uuid:7e863b3b-6b72-11ec-0000-020000000000"/>
    <resource>
      <MedicationRequest>
        <meta>
          <profile value="http://nictiz.nl/fhir/StructureDefinition/mp-MedicationAgreement"/>
        </meta>
        <text>
          <status value="extensions"/>
          <div xmlns="http://www.w3.org/1999/xhtml">
            <table>
              <caption>MedicationRequest. Subject: Patient, C. XXX_Dongen. Id: MBH_300_stoppen_MA_start (urn:oid:2.16.840.1.113883.2.4.3.11.999.77.16076005.1), Categorie: <span title="voorschrijven van geneesmiddel (33633005 - SNOMED CT)">voorschrijven van geneesmiddel</span>, Status: onbekend<span style="display: block;">Intentie: aanvraag</span>
                <span style="display: block;">Aangevraagd door: Healthcare professional (role), Bertine van Doorn, Huisartsen, niet nader gespecificeerd, Huisartsenpraktijk Pulver &amp; Partners</span>
              </caption>
              <tbody>
                <tr>
                  <th>Medicatie</th>
                  <td>Acetylsalicylzuur tabletmsr 100mg</td>
                </tr>
                <tr>
                  <th>Doseerinstructie</th>
                  <td>
                    <div>Timing: <div>eenmalig per dag</div>
                    </div>
                    <div>Toedieningsweg: <span title="Oraal (9 - G-Standaard thesaurus subtabel 0007)">Oraal</span>
                    </div>
                    <div>Dosering: doseAndRate TODO</div>
                  </td>
                </tr>
              </tbody>
            </table>
          </div>
        </text>
        <extension url="http://nictiz.nl/fhir/StructureDefinition/ext-RegistrationDateTime">
          <valueDateTime value="${DATE, T, D, -60}T08:00:00+02:00"/>
        </extension>
        <extension url="http://nictiz.nl/fhir/StructureDefinition/ext-RenderedDosageInstruction">
          <valueString value="wordt automatisch gegenereerd"/>
        </extension>
        <extension url="http://nictiz.nl/fhir/StructureDefinition/ext-TimeInterval.Period">
          <valuePeriod>
            <start value="${DATE, T, D, -60}T00:00:00+02:00"/>
            <end value="${DATE, T, D, +220}T23:59:59+02:00"/>
          </valuePeriod>
        </extension>
        <extension url="http://nictiz.nl/fhir/StructureDefinition/ext-PharmaceuticalTreatment.Identifier">
          <valueIdentifier>
            <system value="urn:oid:2.16.840.1.113883.2.4.3.11.999.77.1.1"/>
            <value value="MBH_300_stoppen"/>
          </valueIdentifier>
        </extension>
        <identifier>
          <system value="urn:oid:2.16.840.1.113883.2.4.3.11.999.77.16076005.1"/>
          <value value="MBH_300_stoppen_MA_start"/>
        </identifier>
        <status value="unknown"/>
        <intent value="order"/>
        <category>
          <coding>
            <system value="http://snomed.info/sct"/>
            <code value="33633005"/>
            <display value="voorschrijven van geneesmiddel"/>
          </coding>
        </category>
        <medicationReference>
          <reference value="urn:uuid:a07ec504-6ac4-11ec-0000-020000000000"/>
          <type value="Medication"/>
          <display value="Acetylsalicylzuur tabletmsr 100mg"/>
        </medicationReference>
        <subject>
          <reference value="urn:uuid:d0c78ff2-6adc-11ec-0000-020000000000"/>
          <type value="Patient"/>
          <display value="Patient, C. XXX_Dongen"/>
        </subject>
        <requester>
          <reference value="urn:uuid:4560482e-6aec-11ec-0000-020000000000"/>
          <type value="PractitionerRole"/>
          <display value="Healthcare professional (role), Bertine van Doorn, Huisartsen, niet nader gespecificeerd, Huisartsenpraktijk Pulver &amp; Partners"/>
        </requester>
        <dosageInstruction>
          <timing>
            <repeat>
              <frequency value="1"/>
              <period value="1"/>
              <periodUnit value="d"/>
            </repeat>
          </timing>
          <route>
            <coding>
              <system value="urn:oid:2.16.840.1.113883.2.4.4.9"/>
              <code value="9"/>
              <display value="Oraal"/>
            </coding>
          </route>
          <doseAndRate>
            <doseQuantity>
              <extension url="http://hl7.org/fhir/StructureDefinition/iso21090-PQ-translation">
                <valueQuantity>
                  <value value="1"/>
                  <unit value="stuk"/>
                  <system value="urn:oid:2.16.840.1.113883.2.4.4.1.900.2"/>
                  <code value="245"/>
                </valueQuantity>
              </extension>
              <value value="1"/>
              <unit value="stuk"/>
              <system value="http://unitsofmeasure.org"/>
              <code value="1"/>
            </doseQuantity>
          </doseAndRate>
        </dosageInstruction>
      </MedicationRequest>
    </resource>
    <request>
      <method value="POST"/>
      <url value="MedicationRequest"/>
    </request>
  </entry>
  <entry>
    <fullUrl value="urn:uuid:b23c1b3e-6b5f-11ec-0000-020000000000"/>
    <resource>
      <MedicationRequest>
        <meta>
          <profile value="http://nictiz.nl/fhir/StructureDefinition/mp-MedicationAgreement"/>
        </meta>
        <text>
          <status value="extensions"/>
          <div xmlns="http://www.w3.org/1999/xhtml">
            <table>
              <caption>MedicationRequest. Subject: Patient, C. XXX_Dongen. Id: MBH_300_stoppen_MA_staken (urn:oid:2.16.840.1.113883.2.4.3.11.999.77.16076005.1), Categorie: <span title="voorschrijven van geneesmiddel (33633005 - SNOMED CT)">voorschrijven van geneesmiddel</span>, Status: onbekend<span style="display: block;">Intentie: aanvraag</span>
                <span style="display: block;">Aangevraagd door: Healthcare professional (role), Bertine van Doorn, Huisartsen, niet nader gespecificeerd, Huisartsenpraktijk Pulver &amp; Partners</span>
              </caption>
              <tbody>
                <tr>
                  <th>Medicatie</th>
                  <td>Acetylsalicylzuur tabletmsr 100mg</td>
                </tr>
                <tr>
                  <th>Reden</th>
                  <td>
                    <span title="geneesmiddelinteractie (79899007 - SNOMED CT)">geneesmiddelinteractie</span>
                  </td>
                </tr>
                <tr>
                  <th>Doseerinstructie</th>
                  <td>
                    <div>Timing: <div>eenmalig per dag</div>
                    </div>
                    <div>Toedieningsweg: <span title="Oraal (9 - G-Standaard thesaurus subtabel 0007)">Oraal</span>
                    </div>
                    <div>Dosering: doseAndRate TODO</div>
                  </td>
                </tr>
              </tbody>
            </table>
          </div>
        </text>
        <extension url="http://nictiz.nl/fhir/StructureDefinition/ext-RegistrationDateTime">
          <valueDateTime value="${DATE, T, D, -10}T18:00:00+02:00"/>
        </extension>
        <extension url="http://nictiz.nl/fhir/StructureDefinition/ext-RenderedDosageInstruction">
          <valueString value="wordt automatisch gegenereerd"/>
        </extension>
        <extension url="http://nictiz.nl/fhir/StructureDefinition/ext-TimeInterval.Period">
          <valuePeriod>
            <start value="${DATE, T, D, -60}T00:00:00+02:00"/>
            <end value="${DATE, T, D, -0}T23:59:59+02:00"/>
          </valuePeriod>
        </extension>
        <extension url="http://nictiz.nl/fhir/StructureDefinition/ext-PharmaceuticalTreatment.Identifier">
          <valueIdentifier>
            <system value="urn:oid:2.16.840.1.113883.2.4.3.11.999.77.1.1"/>
            <value value="MBH_300_stoppen"/>
          </valueIdentifier>
        </extension>
        <modifierExtension url="http://nictiz.nl/fhir/StructureDefinition/ext-StopType">
          <valueCodeableConcept>
            <coding>
              <system value="http://snomed.info/sct"/>
              <code value="410546004"/>
              <display value="stopgezet"/>
            </coding>
          </valueCodeableConcept>
        </modifierExtension>
        <identifier>
          <system value="urn:oid:2.16.840.1.113883.2.4.3.11.999.77.16076005.1"/>
          <value value="MBH_300_stoppen_MA_staken"/>
        </identifier>
        <status value="unknown"/>
        <intent value="order"/>
        <category>
          <coding>
            <system value="http://snomed.info/sct"/>
            <code value="33633005"/>
            <display value="voorschrijven van geneesmiddel"/>
          </coding>
        </category>
        <medicationReference>
          <reference value="urn:uuid:a07ec504-6ac4-11ec-0000-020000000000"/>
          <type value="Medication"/>
          <display value="Acetylsalicylzuur tabletmsr 100mg"/>
        </medicationReference>
        <subject>
          <reference value="urn:uuid:d0c78ff2-6adc-11ec-0000-020000000000"/>
          <type value="Patient"/>
          <display value="Patient, C. XXX_Dongen"/>
        </subject>
        <requester>
          <reference value="urn:uuid:4560482e-6aec-11ec-0000-020000000000"/>
          <type value="PractitionerRole"/>
          <display value="Healthcare professional (role), Bertine van Doorn, Huisartsen, niet nader gespecificeerd, Huisartsenpraktijk Pulver &amp; Partners"/>
        </requester>
        <reasonCode>
          <coding>
            <system value="http://snomed.info/sct"/>
            <code value="79899007"/>
            <display value="geneesmiddelinteractie"/>
          </coding>
        </reasonCode>
        <dosageInstruction>
          <timing>
            <repeat>
              <frequency value="1"/>
              <period value="1"/>
              <periodUnit value="d"/>
            </repeat>
          </timing>
          <route>
            <coding>
              <system value="urn:oid:2.16.840.1.113883.2.4.4.9"/>
              <code value="9"/>
              <display value="Oraal"/>
            </coding>
          </route>
          <doseAndRate>
            <doseQuantity>
              <extension url="http://hl7.org/fhir/StructureDefinition/iso21090-PQ-translation">
                <valueQuantity>
                  <value value="1"/>
                  <unit value="stuk"/>
                  <system value="urn:oid:2.16.840.1.113883.2.4.4.1.900.2"/>
                  <code value="245"/>
                </valueQuantity>
              </extension>
              <value value="1"/>
              <unit value="stuk"/>
              <system value="http://unitsofmeasure.org"/>
              <code value="1"/>
            </doseQuantity>
          </doseAndRate>
        </dosageInstruction>
        <priorPrescription>
          <type value="MedicationRequest"/>
          <identifier>
            <system value="urn:oid:2.16.840.1.113883.2.4.3.11.999.77.16076005.1"/>
            <value value="MBH_300_stoppen_MA_start"/>
          </identifier>
          <display value="relatie naar medicatieafspraak: MBH_300_stoppen_MA_start || 2.16.840.1.113883.2.4.3.11.999.77.16076005.1"/>
        </priorPrescription>
      </MedicationRequest>
    </resource>
    <request>
      <method value="POST"/>
      <url value="MedicationRequest"/>
    </request>
  </entry>
  <entry>
    <fullUrl value="urn:uuid:4c33b35d-6ad7-11ec-0000-020000000000"/>
    <resource>
      <MedicationRequest>
        <meta>
          <profile value="http://nictiz.nl/fhir/StructureDefinition/mp-MedicationAgreement"/>
        </meta>
        <text>
          <status value="extensions"/>
          <div xmlns="http://www.w3.org/1999/xhtml">
            <table>
              <caption>MedicationRequest. Subject: Patient, C. XXX_Dongen. Id: MBH_300_wijzigen_verhoging_MA_start (urn:oid:2.16.840.1.113883.2.4.3.11.999.77.16076005.1), Categorie: <span title="voorschrijven van geneesmiddel (33633005 - SNOMED CT)">voorschrijven van geneesmiddel</span>, Status: onbekend<span style="display: block;">Intentie: aanvraag</span>
                <span style="display: block;">Aangevraagd door: Healthcare professional (role), Bertine van Doorn, Huisartsen, niet nader gespecificeerd, Huisartsenpraktijk Pulver &amp; Partners</span>
              </caption>
              <tbody>
                <tr>
                  <th>Medicatie</th>
                  <td>FUROSEMIDE 40MG TABLET</td>
                </tr>
                <tr>
                  <th>Doseerinstructie</th>
                  <td>
                    <div>Timing: <div>eenmalig per dag</div>
                    </div>
                    <div>Toedieningsweg: <span title="Oraal (9 - G-Standaard thesaurus subtabel 0007)">Oraal</span>
                    </div>
                    <div>Dosering: doseAndRate TODO</div>
                  </td>
                </tr>
              </tbody>
            </table>
          </div>
        </text>
        <extension url="http://nictiz.nl/fhir/StructureDefinition/ext-RegistrationDateTime">
          <valueDateTime value="${DATE, T, D, -21}T08:02:00+02:00"/>
        </extension>
        <extension url="http://nictiz.nl/fhir/StructureDefinition/ext-RenderedDosageInstruction">
          <valueString value="wordt automatisch gegenereerd"/>
        </extension>
        <extension url="http://nictiz.nl/fhir/StructureDefinition/ext-TimeInterval.Period">
          <valuePeriod>
            <start value="${DATE, T, D, -21}T00:00:00+02:00"/>
          </valuePeriod>
        </extension>
        <extension url="http://nictiz.nl/fhir/StructureDefinition/ext-PharmaceuticalTreatment.Identifier">
          <valueIdentifier>
            <system value="urn:oid:2.16.840.1.113883.2.4.3.11.999.77.1.1"/>
            <value value="MBH_300_wijzigen_verhoging"/>
          </valueIdentifier>
        </extension>
        <identifier>
          <system value="urn:oid:2.16.840.1.113883.2.4.3.11.999.77.16076005.1"/>
          <value value="MBH_300_wijzigen_verhoging_MA_start"/>
        </identifier>
        <status value="unknown"/>
        <intent value="order"/>
        <category>
          <coding>
            <system value="http://snomed.info/sct"/>
            <code value="33633005"/>
            <display value="voorschrijven van geneesmiddel"/>
          </coding>
        </category>
        <medicationReference>
          <reference value="urn:uuid:097956e9-6aa6-11ec-0000-020000000000"/>
          <type value="Medication"/>
          <display value="FUROSEMIDE 40MG TABLET"/>
        </medicationReference>
        <subject>
          <reference value="urn:uuid:d0c78ff2-6adc-11ec-0000-020000000000"/>
          <type value="Patient"/>
          <display value="Patient, C. XXX_Dongen"/>
        </subject>
        <requester>
          <reference value="urn:uuid:4560482e-6aec-11ec-0000-020000000000"/>
          <type value="PractitionerRole"/>
          <display value="Healthcare professional (role), Bertine van Doorn, Huisartsen, niet nader gespecificeerd, Huisartsenpraktijk Pulver &amp; Partners"/>
        </requester>
        <dosageInstruction>
          <timing>
            <repeat>
              <frequency value="1"/>
              <period value="1"/>
              <periodUnit value="d"/>
            </repeat>
          </timing>
          <route>
            <coding>
              <system value="urn:oid:2.16.840.1.113883.2.4.4.9"/>
              <code value="9"/>
              <display value="Oraal"/>
            </coding>
          </route>
          <doseAndRate>
            <doseQuantity>
              <extension url="http://hl7.org/fhir/StructureDefinition/iso21090-PQ-translation">
                <valueQuantity>
                  <value value="1"/>
                  <unit value="stuk"/>
                  <system value="urn:oid:2.16.840.1.113883.2.4.4.1.900.2"/>
                  <code value="245"/>
                </valueQuantity>
              </extension>
              <value value="1"/>
              <unit value="stuk"/>
              <system value="http://unitsofmeasure.org"/>
              <code value="1"/>
            </doseQuantity>
          </doseAndRate>
        </dosageInstruction>
      </MedicationRequest>
    </resource>
    <request>
      <method value="POST"/>
      <url value="MedicationRequest"/>
    </request>
  </entry>
  <entry>
    <fullUrl value="urn:uuid:a395135d-6b31-11ec-0000-020000000000"/>
    <resource>
      <MedicationRequest>
        <meta>
          <profile value="http://nictiz.nl/fhir/StructureDefinition/mp-MedicationAgreement"/>
        </meta>
        <text>
          <status value="extensions"/>
          <div xmlns="http://www.w3.org/1999/xhtml">
            <table>
              <caption>MedicationRequest. Subject: Patient, C. XXX_Dongen. Id: MBH_300_wijzigen_verhoging_MA_wijzigingmetVV (urn:oid:2.16.840.1.113883.2.4.3.11.999.77.16076005.1), Categorie: <span title="voorschrijven van geneesmiddel (33633005 - SNOMED CT)">voorschrijven van geneesmiddel</span>, Status: onbekend<span style="display: block;">Intentie: aanvraag</span>
                <span style="display: block;">Aangevraagd door: Healthcare professional (role), Bertine van Doorn, Huisartsen, niet nader gespecificeerd, Huisartsenpraktijk Pulver &amp; Partners</span>
              </caption>
              <tbody>
                <tr>
                  <th>Medicatie</th>
                  <td>FUROSEMIDE 40MG TABLET</td>
                </tr>
                <tr>
                  <th>Reden</th>
                  <td>
                    <span title="gebrek aan geneesmiddeleffect (58848006 - SNOMED CT)">gebrek aan geneesmiddeleffect</span>
                  </td>
                </tr>
                <tr>
                  <th>Doseerinstructie</th>
                  <td>
                    <div>Timing: <div>eenmalig per dag</div>
                    </div>
                    <div>Toedieningsweg: <span title="Oraal (9 - G-Standaard thesaurus subtabel 0007)">Oraal</span>
                    </div>
                    <div>Dosering: doseAndRate TODO</div>
                  </td>
                </tr>
              </tbody>
            </table>
          </div>
        </text>
        <extension url="http://nictiz.nl/fhir/StructureDefinition/ext-RegistrationDateTime">
          <valueDateTime value="${DATE, T, D, -2}T08:02:00+02:00"/>
        </extension>
        <extension url="http://nictiz.nl/fhir/StructureDefinition/ext-RenderedDosageInstruction">
          <valueString value="wordt automatisch gegenereerd"/>
        </extension>
        <extension url="http://nictiz.nl/fhir/StructureDefinition/ext-TimeInterval.Period">
          <valuePeriod>
            <start value="${DATE, T, D, -2}T00:00:00+02:00"/>
          </valuePeriod>
        </extension>
        <extension url="http://nictiz.nl/fhir/StructureDefinition/ext-PharmaceuticalTreatment.Identifier">
          <valueIdentifier>
            <system value="urn:oid:2.16.840.1.113883.2.4.3.11.999.77.1.1"/>
            <value value="MBH_300_wijzigen_verhoging"/>
          </valueIdentifier>
        </extension>
        <identifier>
          <system value="urn:oid:2.16.840.1.113883.2.4.3.11.999.77.16076005.1"/>
          <value value="MBH_300_wijzigen_verhoging_MA_wijzigingmetVV"/>
        </identifier>
        <status value="unknown"/>
        <intent value="order"/>
        <category>
          <coding>
            <system value="http://snomed.info/sct"/>
            <code value="33633005"/>
            <display value="voorschrijven van geneesmiddel"/>
          </coding>
        </category>
        <medicationReference>
          <reference value="urn:uuid:097956e9-6aa6-11ec-0000-020000000000"/>
          <type value="Medication"/>
          <display value="FUROSEMIDE 40MG TABLET"/>
        </medicationReference>
        <subject>
          <reference value="urn:uuid:d0c78ff2-6adc-11ec-0000-020000000000"/>
          <type value="Patient"/>
          <display value="Patient, C. XXX_Dongen"/>
        </subject>
        <requester>
          <reference value="urn:uuid:4560482e-6aec-11ec-0000-020000000000"/>
          <type value="PractitionerRole"/>
          <display value="Healthcare professional (role), Bertine van Doorn, Huisartsen, niet nader gespecificeerd, Huisartsenpraktijk Pulver &amp; Partners"/>
        </requester>
        <reasonCode>
          <coding>
            <system value="http://snomed.info/sct"/>
            <code value="58848006"/>
            <display value="gebrek aan geneesmiddeleffect"/>
          </coding>
        </reasonCode>
        <dosageInstruction>
          <timing>
            <repeat>
              <frequency value="1"/>
              <period value="1"/>
              <periodUnit value="d"/>
            </repeat>
          </timing>
          <route>
            <coding>
              <system value="urn:oid:2.16.840.1.113883.2.4.4.9"/>
              <code value="9"/>
              <display value="Oraal"/>
            </coding>
          </route>
          <doseAndRate>
            <doseQuantity>
              <extension url="http://hl7.org/fhir/StructureDefinition/iso21090-PQ-translation">
                <valueQuantity>
                  <value value="2"/>
                  <unit value="stuk"/>
                  <system value="urn:oid:2.16.840.1.113883.2.4.4.1.900.2"/>
                  <code value="245"/>
                </valueQuantity>
              </extension>
              <value value="2"/>
              <unit value="stuk"/>
              <system value="http://unitsofmeasure.org"/>
              <code value="1"/>
            </doseQuantity>
          </doseAndRate>
        </dosageInstruction>
        <priorPrescription>
          <type value="MedicationRequest"/>
          <identifier>
            <system value="urn:oid:2.16.840.1.113883.2.4.3.11.999.77.16076005.1"/>
            <value value="MBH_300_wijzigen_verhoging_MA_start"/>
          </identifier>
          <display value="relatie naar medicatieafspraak: MBH_300_wijzigen_verhoging_MA_start || 2.16.840.1.113883.2.4.3.11.999.77.16076005.1"/>
        </priorPrescription>
      </MedicationRequest>
    </resource>
    <request>
      <method value="POST"/>
      <url value="MedicationRequest"/>
    </request>
  </entry>
  <entry>
    <fullUrl value="urn:uuid:e7fc875d-6ab2-11ec-0000-020000000000"/>
    <resource>
      <MedicationRequest>
        <meta>
          <profile value="http://nictiz.nl/fhir/StructureDefinition/mp-MedicationAgreement"/>
        </meta>
        <text>
          <status value="extensions"/>
          <div xmlns="http://www.w3.org/1999/xhtml">
            <table>
              <caption>MedicationRequest. Subject: Patient, C. XXX_Dongen. Id: MBH_300_wijzigen_verhoging_MA_techstaken (urn:oid:2.16.840.1.113883.2.4.3.11.999.77.16076005.1), Categorie: <span title="voorschrijven van geneesmiddel (33633005 - SNOMED CT)">voorschrijven van geneesmiddel</span>, Status: onbekend<span style="display: block;">Intentie: aanvraag</span>
                <span style="display: block;">Aangevraagd door: Healthcare professional (role), Bertine van Doorn, Huisartsen, niet nader gespecificeerd, Huisartsenpraktijk Pulver &amp; Partners</span>
              </caption>
              <tbody>
                <tr>
                  <th>Medicatie</th>
                  <td>FUROSEMIDE 40MG TABLET</td>
                </tr>
                <tr>
                  <th>Doseerinstructie</th>
                  <td>
                    <div>Timing: <div>eenmalig per dag</div>
                    </div>
                    <div>Toedieningsweg: <span title="Oraal (9 - G-Standaard thesaurus subtabel 0007)">Oraal</span>
                    </div>
                    <div>Dosering: doseAndRate TODO</div>
                  </td>
                </tr>
              </tbody>
            </table>
          </div>
        </text>
        <extension url="http://nictiz.nl/fhir/StructureDefinition/ext-RegistrationDateTime">
          <valueDateTime value="${DATE, T, D, -2}T08:02:00+02:00"/>
        </extension>
        <extension url="http://nictiz.nl/fhir/StructureDefinition/ext-RenderedDosageInstruction">
          <valueString value="wordt automatisch gegenereerd"/>
        </extension>
        <extension url="http://nictiz.nl/fhir/StructureDefinition/ext-TimeInterval.Period">
          <valuePeriod>
            <start value="${DATE, T, D, -21}T00:00:00+02:00"/>
            <end value="${DATE, T, D, -3}T23:59:59+02:00"/>
          </valuePeriod>
        </extension>
        <extension url="http://nictiz.nl/fhir/StructureDefinition/ext-PharmaceuticalTreatment.Identifier">
          <valueIdentifier>
            <system value="urn:oid:2.16.840.1.113883.2.4.3.11.999.77.1.1"/>
            <value value="MBH_300_wijzigen_verhoging"/>
          </valueIdentifier>
        </extension>
        <modifierExtension url="http://nictiz.nl/fhir/StructureDefinition/ext-StopType">
          <valueCodeableConcept>
            <coding>
              <system value="http://snomed.info/sct"/>
              <code value="410546004"/>
              <display value="stopgezet"/>
            </coding>
          </valueCodeableConcept>
        </modifierExtension>
        <identifier>
          <system value="urn:oid:2.16.840.1.113883.2.4.3.11.999.77.16076005.1"/>
          <value value="MBH_300_wijzigen_verhoging_MA_techstaken"/>
        </identifier>
        <status value="unknown"/>
        <intent value="order"/>
        <category>
          <coding>
            <system value="http://snomed.info/sct"/>
            <code value="33633005"/>
            <display value="voorschrijven van geneesmiddel"/>
          </coding>
        </category>
        <medicationReference>
          <reference value="urn:uuid:097956e9-6aa6-11ec-0000-020000000000"/>
          <type value="Medication"/>
          <display value="FUROSEMIDE 40MG TABLET"/>
        </medicationReference>
        <subject>
          <reference value="urn:uuid:d0c78ff2-6adc-11ec-0000-020000000000"/>
          <type value="Patient"/>
          <display value="Patient, C. XXX_Dongen"/>
        </subject>
        <requester>
          <reference value="urn:uuid:4560482e-6aec-11ec-0000-020000000000"/>
          <type value="PractitionerRole"/>
          <display value="Healthcare professional (role), Bertine van Doorn, Huisartsen, niet nader gespecificeerd, Huisartsenpraktijk Pulver &amp; Partners"/>
        </requester>
        <dosageInstruction>
          <timing>
            <repeat>
              <frequency value="1"/>
              <period value="1"/>
              <periodUnit value="d"/>
            </repeat>
          </timing>
          <route>
            <coding>
              <system value="urn:oid:2.16.840.1.113883.2.4.4.9"/>
              <code value="9"/>
              <display value="Oraal"/>
            </coding>
          </route>
          <doseAndRate>
            <doseQuantity>
              <extension url="http://hl7.org/fhir/StructureDefinition/iso21090-PQ-translation">
                <valueQuantity>
                  <value value="1"/>
                  <unit value="stuk"/>
                  <system value="urn:oid:2.16.840.1.113883.2.4.4.1.900.2"/>
                  <code value="245"/>
                </valueQuantity>
              </extension>
              <value value="1"/>
              <unit value="stuk"/>
              <system value="http://unitsofmeasure.org"/>
              <code value="1"/>
            </doseQuantity>
          </doseAndRate>
        </dosageInstruction>
        <priorPrescription>
          <type value="MedicationRequest"/>
          <identifier>
            <system value="urn:oid:2.16.840.1.113883.2.4.3.11.999.77.16076005.1"/>
            <value value="MBH_300_wijzigen_verhoging_MA_start"/>
          </identifier>
          <display value="relatie naar medicatieafspraak: MBH_300_wijzigen_verhoging_MA_start || 2.16.840.1.113883.2.4.3.11.999.77.16076005.1"/>
        </priorPrescription>
      </MedicationRequest>
    </resource>
    <request>
      <method value="POST"/>
      <url value="MedicationRequest"/>
    </request>
  </entry>
  <entry>
    <fullUrl value="urn:uuid:ba431b3e-6add-11ec-0000-020000000000"/>
    <resource>
      <MedicationRequest>
        <meta>
          <profile value="http://nictiz.nl/fhir/StructureDefinition/mp-MedicationAgreement"/>
        </meta>
        <text>
          <status value="extensions"/>
          <div xmlns="http://www.w3.org/1999/xhtml">
            <table>
              <caption>MedicationRequest. Subject: Patient, C. XXX_Dongen. Id: MBH_300_wijzigen_verlaging_MA_start (urn:oid:2.16.840.1.113883.2.4.3.11.999.77.16076005.1), Categorie: <span title="voorschrijven van geneesmiddel (33633005 - SNOMED CT)">voorschrijven van geneesmiddel</span>, Status: onbekend<span style="display: block;">Intentie: aanvraag</span>
                <span style="display: block;">Aangevraagd door: Healthcare professional (role), Bertine van Doorn, Huisartsen, niet nader gespecificeerd, Huisartsenpraktijk Pulver &amp; Partners</span>
              </caption>
              <tbody>
                <tr>
                  <th>Medicatie</th>
                  <td>FERROFUMARAAT TABLET 200MG</td>
                </tr>
                <tr>
                  <th>Doseerinstructie</th>
                  <td>
                    <div>Timing: <div>2 maal per week</div>
                    </div>
                    <div>Toedieningsweg: <span title="Oraal (9 - G-Standaard thesaurus subtabel 0007)">Oraal</span>
                    </div>
                    <div>Dosering: doseAndRate TODO</div>
                  </td>
                </tr>
              </tbody>
            </table>
          </div>
        </text>
        <extension url="http://nictiz.nl/fhir/StructureDefinition/ext-RegistrationDateTime">
          <valueDateTime value="${DATE, T, D, -13}T08:05:00+02:00"/>
        </extension>
        <extension url="http://nictiz.nl/fhir/StructureDefinition/ext-RenderedDosageInstruction">
          <valueString value="wordt automatisch gegenereerd"/>
        </extension>
        <extension url="http://nictiz.nl/fhir/StructureDefinition/ext-TimeInterval.Period">
          <valuePeriod>
            <start value="${DATE, T, D, -13}T00:00:00+02:00"/>
            <end value="${DATE, T, D, +14}T23:59:59+02:00"/>
          </valuePeriod>
        </extension>
        <extension url="http://nictiz.nl/fhir/StructureDefinition/ext-PharmaceuticalTreatment.Identifier">
          <valueIdentifier>
            <system value="urn:oid:2.16.840.1.113883.2.4.3.11.999.77.1.1"/>
            <value value="MBH_300_wijzigen_verlaging"/>
          </valueIdentifier>
        </extension>
        <identifier>
          <system value="urn:oid:2.16.840.1.113883.2.4.3.11.999.77.16076005.1"/>
          <value value="MBH_300_wijzigen_verlaging_MA_start"/>
        </identifier>
        <status value="unknown"/>
        <intent value="order"/>
        <category>
          <coding>
            <system value="http://snomed.info/sct"/>
            <code value="33633005"/>
            <display value="voorschrijven van geneesmiddel"/>
          </coding>
        </category>
        <medicationReference>
          <reference value="urn:uuid:661c3b1d-6b30-11ec-0000-020000000000"/>
          <type value="Medication"/>
          <display value="FERROFUMARAAT TABLET 200MG"/>
        </medicationReference>
        <subject>
          <reference value="urn:uuid:d0c78ff2-6adc-11ec-0000-020000000000"/>
          <type value="Patient"/>
          <display value="Patient, C. XXX_Dongen"/>
        </subject>
        <requester>
          <reference value="urn:uuid:4560482e-6aec-11ec-0000-020000000000"/>
          <type value="PractitionerRole"/>
          <display value="Healthcare professional (role), Bertine van Doorn, Huisartsen, niet nader gespecificeerd, Huisartsenpraktijk Pulver &amp; Partners"/>
        </requester>
        <dosageInstruction>
          <timing>
            <repeat>
              <frequency value="2"/>
              <period value="1"/>
              <periodUnit value="wk"/>
            </repeat>
          </timing>
          <route>
            <coding>
              <system value="urn:oid:2.16.840.1.113883.2.4.4.9"/>
              <code value="9"/>
              <display value="Oraal"/>
            </coding>
          </route>
          <doseAndRate>
            <doseQuantity>
              <extension url="http://hl7.org/fhir/StructureDefinition/iso21090-PQ-translation">
                <valueQuantity>
                  <value value="1"/>
                  <unit value="stuk"/>
                  <system value="urn:oid:2.16.840.1.113883.2.4.4.1.900.2"/>
                  <code value="245"/>
                </valueQuantity>
              </extension>
              <value value="1"/>
              <unit value="stuk"/>
              <system value="http://unitsofmeasure.org"/>
              <code value="1"/>
            </doseQuantity>
          </doseAndRate>
        </dosageInstruction>
      </MedicationRequest>
    </resource>
    <request>
      <method value="POST"/>
      <url value="MedicationRequest"/>
    </request>
  </entry>
  <entry>
    <fullUrl value="urn:uuid:bb97ab5d-6af7-11ec-0000-020000000000"/>
    <resource>
      <MedicationRequest>
        <meta>
          <profile value="http://nictiz.nl/fhir/StructureDefinition/mp-MedicationAgreement"/>
        </meta>
        <text>
          <status value="extensions"/>
          <div xmlns="http://www.w3.org/1999/xhtml">
            <table>
              <caption>MedicationRequest. Subject: Patient, C. XXX_Dongen. Id: MBH_300_wijzigen_verlaging_MA_wijzigingzonderVV (urn:oid:2.16.840.1.113883.2.4.3.11.999.77.16076005.1), Categorie: <span title="voorschrijven van geneesmiddel (33633005 - SNOMED CT)">voorschrijven van geneesmiddel</span>, Status: onbekend<span style="display: block;">Intentie: aanvraag</span>
                <span style="display: block;">Aangevraagd door: Healthcare professional (role), Bertine van Doorn, Huisartsen, niet nader gespecificeerd, Huisartsenpraktijk Pulver &amp; Partners</span>
              </caption>
              <tbody>
                <tr>
                  <th>Medicatie</th>
                  <td>FERROFUMARAAT TABLET 200MG</td>
                </tr>
                <tr>
                  <th>Reden</th>
                  <td>
                    <span title="te sterk effect van medicatie (112251000146103 - SNOMED CT)">te sterk effect van medicatie</span>
                  </td>
                </tr>
                <tr>
                  <th>Doseerinstructie</th>
                  <td>
                    <div>Timing: <div>eenmalig per week</div>
                    </div>
                    <div>Toedieningsweg: <span title="Oraal (9 - G-Standaard thesaurus subtabel 0007)">Oraal</span>
                    </div>
                    <div>Dosering: doseAndRate TODO</div>
                  </td>
                </tr>
              </tbody>
            </table>
          </div>
        </text>
        <extension url="http://nictiz.nl/fhir/StructureDefinition/ext-RegistrationDateTime">
          <valueDateTime value="${DATE, T, D, -1}T08:10:00+02:00"/>
        </extension>
        <extension url="http://nictiz.nl/fhir/StructureDefinition/ext-RenderedDosageInstruction">
          <valueString value="wordt automatisch gegenereerd"/>
        </extension>
        <extension url="http://nictiz.nl/fhir/StructureDefinition/ext-TimeInterval.Period">
          <valuePeriod>
            <start value="${DATE, T, D, -1}T00:00:00+02:00"/>
            <end value="${DATE, T, D, +14}T23:59:59+02:00"/>
          </valuePeriod>
        </extension>
        <extension url="http://nictiz.nl/fhir/StructureDefinition/ext-PharmaceuticalTreatment.Identifier">
          <valueIdentifier>
            <system value="urn:oid:2.16.840.1.113883.2.4.3.11.999.77.1.1"/>
            <value value="MBH_300_wijzigen_verlaging"/>
          </valueIdentifier>
        </extension>
        <identifier>
          <system value="urn:oid:2.16.840.1.113883.2.4.3.11.999.77.16076005.1"/>
          <value value="MBH_300_wijzigen_verlaging_MA_wijzigingzonderVV"/>
        </identifier>
        <status value="unknown"/>
        <intent value="order"/>
        <category>
          <coding>
            <system value="http://snomed.info/sct"/>
            <code value="33633005"/>
            <display value="voorschrijven van geneesmiddel"/>
          </coding>
        </category>
        <medicationReference>
          <reference value="urn:uuid:661c3b1d-6b30-11ec-0000-020000000000"/>
          <type value="Medication"/>
          <display value="FERROFUMARAAT TABLET 200MG"/>
        </medicationReference>
        <subject>
          <reference value="urn:uuid:d0c78ff2-6adc-11ec-0000-020000000000"/>
          <type value="Patient"/>
          <display value="Patient, C. XXX_Dongen"/>
        </subject>
        <requester>
          <reference value="urn:uuid:4560482e-6aec-11ec-0000-020000000000"/>
          <type value="PractitionerRole"/>
          <display value="Healthcare professional (role), Bertine van Doorn, Huisartsen, niet nader gespecificeerd, Huisartsenpraktijk Pulver &amp; Partners"/>
        </requester>
        <reasonCode>
          <coding>
            <system value="http://snomed.info/sct"/>
            <code value="112251000146103"/>
            <display value="te sterk effect van medicatie"/>
          </coding>
        </reasonCode>
        <dosageInstruction>
          <timing>
            <repeat>
              <frequency value="1"/>
              <period value="1"/>
              <periodUnit value="wk"/>
            </repeat>
          </timing>
          <route>
            <coding>
              <system value="urn:oid:2.16.840.1.113883.2.4.4.9"/>
              <code value="9"/>
              <display value="Oraal"/>
            </coding>
          </route>
          <doseAndRate>
            <doseQuantity>
              <extension url="http://hl7.org/fhir/StructureDefinition/iso21090-PQ-translation">
                <valueQuantity>
                  <value value="1"/>
                  <unit value="stuk"/>
                  <system value="urn:oid:2.16.840.1.113883.2.4.4.1.900.2"/>
                  <code value="245"/>
                </valueQuantity>
              </extension>
              <value value="1"/>
              <unit value="stuk"/>
              <system value="http://unitsofmeasure.org"/>
              <code value="1"/>
            </doseQuantity>
          </doseAndRate>
        </dosageInstruction>
        <priorPrescription>
          <type value="MedicationRequest"/>
          <identifier>
            <system value="urn:oid:2.16.840.1.113883.2.4.3.11.999.77.16076005.1"/>
            <value value="MBH_300_wijzigen_verlaging_MA_start"/>
          </identifier>
          <display value="relatie naar medicatieafspraak: MBH_300_wijzigen_verlaging_MA_start || 2.16.840.1.113883.2.4.3.11.999.77.16076005.1"/>
        </priorPrescription>
      </MedicationRequest>
    </resource>
    <request>
      <method value="POST"/>
      <url value="MedicationRequest"/>
    </request>
  </entry>
  <entry>
    <fullUrl value="urn:uuid:57c63b3e-6b2e-11ec-0000-020000000000"/>
    <resource>
      <MedicationRequest>
        <meta>
          <profile value="http://nictiz.nl/fhir/StructureDefinition/mp-MedicationAgreement"/>
        </meta>
        <text>
          <status value="extensions"/>
          <div xmlns="http://www.w3.org/1999/xhtml">
            <table>
              <caption>MedicationRequest. Subject: Patient, C. XXX_Dongen. Id: MBH_300_wijzigen_verlaging_MA_techstaken (urn:oid:2.16.840.1.113883.2.4.3.11.999.77.16076005.1), Categorie: <span title="voorschrijven van geneesmiddel (33633005 - SNOMED CT)">voorschrijven van geneesmiddel</span>, Status: onbekend<span style="display: block;">Intentie: aanvraag</span>
                <span style="display: block;">Aangevraagd door: Healthcare professional (role), Bertine van Doorn, Huisartsen, niet nader gespecificeerd, Huisartsenpraktijk Pulver &amp; Partners</span>
              </caption>
              <tbody>
                <tr>
                  <th>Medicatie</th>
                  <td>FERROFUMARAAT TABLET 200MG</td>
                </tr>
                <tr>
                  <th>Doseerinstructie</th>
                  <td>
                    <div>Timing: <div>2 maal per week</div>
                    </div>
                    <div>Toedieningsweg: <span title="Oraal (9 - G-Standaard thesaurus subtabel 0007)">Oraal</span>
                    </div>
                    <div>Dosering: doseAndRate TODO</div>
                  </td>
                </tr>
              </tbody>
            </table>
          </div>
        </text>
        <extension url="http://nictiz.nl/fhir/StructureDefinition/ext-RegistrationDateTime">
          <valueDateTime value="${DATE, T, D, -1}T08:10:00+02:00"/>
        </extension>
        <extension url="http://nictiz.nl/fhir/StructureDefinition/ext-RenderedDosageInstruction">
          <valueString value="wordt automatisch gegenereerd"/>
        </extension>
        <extension url="http://nictiz.nl/fhir/StructureDefinition/ext-TimeInterval.Period">
          <valuePeriod>
            <start value="${DATE, T, D, -13}T00:00:00+02:00"/>
            <end value="${DATE, T, D, -2}T23:59:59+02:00"/>
          </valuePeriod>
        </extension>
        <extension url="http://nictiz.nl/fhir/StructureDefinition/ext-PharmaceuticalTreatment.Identifier">
          <valueIdentifier>
            <system value="urn:oid:2.16.840.1.113883.2.4.3.11.999.77.1.1"/>
            <value value="MBH_300_wijzigen_verlaging"/>
          </valueIdentifier>
        </extension>
        <modifierExtension url="http://nictiz.nl/fhir/StructureDefinition/ext-StopType">
          <valueCodeableConcept>
            <coding>
              <system value="http://snomed.info/sct"/>
              <code value="410546004"/>
              <display value="stopgezet"/>
            </coding>
          </valueCodeableConcept>
        </modifierExtension>
        <identifier>
          <system value="urn:oid:2.16.840.1.113883.2.4.3.11.999.77.16076005.1"/>
          <value value="MBH_300_wijzigen_verlaging_MA_techstaken"/>
        </identifier>
        <status value="unknown"/>
        <intent value="order"/>
        <category>
          <coding>
            <system value="http://snomed.info/sct"/>
            <code value="33633005"/>
            <display value="voorschrijven van geneesmiddel"/>
          </coding>
        </category>
        <medicationReference>
          <reference value="urn:uuid:661c3b1d-6b30-11ec-0000-020000000000"/>
          <type value="Medication"/>
          <display value="FERROFUMARAAT TABLET 200MG"/>
        </medicationReference>
        <subject>
          <reference value="urn:uuid:d0c78ff2-6adc-11ec-0000-020000000000"/>
          <type value="Patient"/>
          <display value="Patient, C. XXX_Dongen"/>
        </subject>
        <requester>
          <reference value="urn:uuid:4560482e-6aec-11ec-0000-020000000000"/>
          <type value="PractitionerRole"/>
          <display value="Healthcare professional (role), Bertine van Doorn, Huisartsen, niet nader gespecificeerd, Huisartsenpraktijk Pulver &amp; Partners"/>
        </requester>
        <dosageInstruction>
          <timing>
            <repeat>
              <frequency value="2"/>
              <period value="1"/>
              <periodUnit value="wk"/>
            </repeat>
          </timing>
          <route>
            <coding>
              <system value="urn:oid:2.16.840.1.113883.2.4.4.9"/>
              <code value="9"/>
              <display value="Oraal"/>
            </coding>
          </route>
          <doseAndRate>
            <doseQuantity>
              <extension url="http://hl7.org/fhir/StructureDefinition/iso21090-PQ-translation">
                <valueQuantity>
                  <value value="1"/>
                  <unit value="stuk"/>
                  <system value="urn:oid:2.16.840.1.113883.2.4.4.1.900.2"/>
                  <code value="245"/>
                </valueQuantity>
              </extension>
              <value value="1"/>
              <unit value="stuk"/>
              <system value="http://unitsofmeasure.org"/>
              <code value="1"/>
            </doseQuantity>
          </doseAndRate>
        </dosageInstruction>
        <priorPrescription>
          <type value="MedicationRequest"/>
          <identifier>
            <system value="urn:oid:2.16.840.1.113883.2.4.3.11.999.77.16076005.1"/>
            <value value="MBH_300_wijzigen_verlaging_MA_start"/>
          </identifier>
          <display value="relatie naar medicatieafspraak: MBH_300_wijzigen_verlaging_MA_start || 2.16.840.1.113883.2.4.3.11.999.77.16076005.1"/>
        </priorPrescription>
      </MedicationRequest>
    </resource>
    <request>
      <method value="POST"/>
      <url value="MedicationRequest"/>
    </request>
  </entry>
  <entry>
    <fullUrl value="urn:uuid:0eba635d-6b6a-11ec-0000-020000000000"/>
    <resource>
      <MedicationRequest>
        <meta>
          <profile value="http://nictiz.nl/fhir/StructureDefinition/mp-MedicationAgreement"/>
        </meta>
        <text>
          <status value="extensions"/>
          <div xmlns="http://www.w3.org/1999/xhtml">
            <table>
              <caption>MedicationRequest. Subject: Patient, C. XXX_Dongen. Id: MBH_300_onderbreken_MA_start (urn:oid:2.16.840.1.113883.2.4.3.11.999.77.16076005.1), Categorie: <span title="voorschrijven van geneesmiddel (33633005 - SNOMED CT)">voorschrijven van geneesmiddel</span>, Status: onbekend<span style="display: block;">Intentie: aanvraag</span>
                <span style="display: block;">Aangevraagd door: Healthcare professional (role), Bertine van Doorn, Huisartsen, niet nader gespecificeerd, Huisartsenpraktijk Pulver &amp; Partners</span>
              </caption>
              <tbody>
                <tr>
                  <th>Medicatie</th>
                  <td>FENETICILLINE CAPSULE 500MG</td>
                </tr>
                <tr>
                  <th>Doseerinstructie</th>
                  <td>
                    <div>Timing: <div>3 maal per dag</div>
                    </div>
                    <div>Toedieningsweg: <span title="Oraal (9 - G-Standaard thesaurus subtabel 0007)">Oraal</span>
                    </div>
                    <div>Dosering: doseAndRate TODO</div>
                  </td>
                </tr>
              </tbody>
            </table>
          </div>
        </text>
        <extension url="http://nictiz.nl/fhir/StructureDefinition/ext-RegistrationDateTime">
          <valueDateTime value="${DATE, T, D, -5}T08:06:00+02:00"/>
        </extension>
        <extension url="http://nictiz.nl/fhir/StructureDefinition/ext-RenderedDosageInstruction">
          <valueString value="wordt automatisch gegenereerd"/>
        </extension>
        <extension url="http://nictiz.nl/fhir/StructureDefinition/ext-TimeInterval.Period">
          <valuePeriod>
            <start value="${DATE, T, D, -4}T00:00:00+02:00"/>
            <end value="${DATE, T, D, +5}T23:59:59+02:00"/>
          </valuePeriod>
        </extension>
        <extension url="http://nictiz.nl/fhir/StructureDefinition/ext-PharmaceuticalTreatment.Identifier">
          <valueIdentifier>
            <system value="urn:oid:2.16.840.1.113883.2.4.3.11.999.77.1.1"/>
            <value value="MBH_300_onderbreken"/>
          </valueIdentifier>
        </extension>
        <identifier>
          <system value="urn:oid:2.16.840.1.113883.2.4.3.11.999.77.16076005.1"/>
          <value value="MBH_300_onderbreken_MA_start"/>
        </identifier>
        <status value="unknown"/>
        <intent value="order"/>
        <category>
          <coding>
            <system value="http://snomed.info/sct"/>
            <code value="33633005"/>
            <display value="voorschrijven van geneesmiddel"/>
          </coding>
        </category>
        <medicationReference>
          <reference value="urn:uuid:ebaaab1d-6b29-11ec-0000-020000000000"/>
          <type value="Medication"/>
          <display value="FENETICILLINE CAPSULE 500MG"/>
        </medicationReference>
        <subject>
          <reference value="urn:uuid:d0c78ff2-6adc-11ec-0000-020000000000"/>
          <type value="Patient"/>
          <display value="Patient, C. XXX_Dongen"/>
        </subject>
        <requester>
          <reference value="urn:uuid:4560482e-6aec-11ec-0000-020000000000"/>
          <type value="PractitionerRole"/>
          <display value="Healthcare professional (role), Bertine van Doorn, Huisartsen, niet nader gespecificeerd, Huisartsenpraktijk Pulver &amp; Partners"/>
        </requester>
        <dosageInstruction>
          <timing>
            <repeat>
              <frequency value="3"/>
              <period value="1"/>
              <periodUnit value="d"/>
            </repeat>
          </timing>
          <route>
            <coding>
              <system value="urn:oid:2.16.840.1.113883.2.4.4.9"/>
              <code value="9"/>
              <display value="Oraal"/>
            </coding>
          </route>
          <doseAndRate>
            <doseQuantity>
              <extension url="http://hl7.org/fhir/StructureDefinition/iso21090-PQ-translation">
                <valueQuantity>
                  <value value="1"/>
                  <unit value="stuk"/>
                  <system value="urn:oid:2.16.840.1.113883.2.4.4.1.900.2"/>
                  <code value="245"/>
                </valueQuantity>
              </extension>
              <value value="1"/>
              <unit value="stuk"/>
              <system value="http://unitsofmeasure.org"/>
              <code value="1"/>
            </doseQuantity>
          </doseAndRate>
        </dosageInstruction>
      </MedicationRequest>
    </resource>
    <request>
      <method value="POST"/>
      <url value="MedicationRequest"/>
    </request>
  </entry>
  <entry>
    <fullUrl value="urn:uuid:934dab3e-6ac4-11ec-0000-020000000000"/>
    <resource>
      <MedicationRequest>
        <meta>
          <profile value="http://nictiz.nl/fhir/StructureDefinition/mp-MedicationAgreement"/>
        </meta>
        <text>
          <status value="extensions"/>
          <div xmlns="http://www.w3.org/1999/xhtml">
            <table>
              <caption>MedicationRequest. Subject: Patient, C. XXX_Dongen. Id: MBH_300_onderbreken_MA_onderbreken (urn:oid:2.16.840.1.113883.2.4.3.11.999.77.16076005.1), Categorie: <span title="voorschrijven van geneesmiddel (33633005 - SNOMED CT)">voorschrijven van geneesmiddel</span>, Status: onbekend<span style="display: block;">Intentie: aanvraag</span>
                <span style="display: block;">Aangevraagd door: Healthcare professional (role), Bertine van Doorn, Huisartsen, niet nader gespecificeerd, Huisartsenpraktijk Pulver &amp; Partners</span>
              </caption>
              <tbody>
                <tr>
                  <th>Medicatie</th>
                  <td>FENETICILLINE CAPSULE 500MG</td>
                </tr>
                <tr>
                  <th>Reden</th>
                  <td>
                    <span title="verrichting gepland (405613005 - SNOMED CT)">verrichting gepland</span>
                  </td>
                </tr>
                <tr>
                  <th>Doseerinstructie</th>
                  <td>
                    <div>Timing: <div>3 maal per dag</div>
                    </div>
                    <div>Toedieningsweg: <span title="Oraal (9 - G-Standaard thesaurus subtabel 0007)">Oraal</span>
                    </div>
                    <div>Dosering: doseAndRate TODO</div>
                  </td>
                </tr>
              </tbody>
            </table>
          </div>
        </text>
        <extension url="http://nictiz.nl/fhir/StructureDefinition/ext-RegistrationDateTime">
          <valueDateTime value="${DATE, T, D, -1}T18:12:00+02:00"/>
        </extension>
        <extension url="http://nictiz.nl/fhir/StructureDefinition/ext-RenderedDosageInstruction">
          <valueString value="wordt automatisch gegenereerd"/>
        </extension>
        <extension url="http://nictiz.nl/fhir/StructureDefinition/ext-TimeInterval.Period">
          <valuePeriod>
            <start value="${DATE, T, D, -4}T00:00:00+02:00"/>
            <end value="${DATE, T, D, -1}T23:59:59+02:00"/>
          </valuePeriod>
        </extension>
        <extension url="http://nictiz.nl/fhir/StructureDefinition/ext-PharmaceuticalTreatment.Identifier">
          <valueIdentifier>
            <system value="urn:oid:2.16.840.1.113883.2.4.3.11.999.77.1.1"/>
            <value value="MBH_300_onderbreken"/>
          </valueIdentifier>
        </extension>
        <modifierExtension url="http://nictiz.nl/fhir/StructureDefinition/ext-StopType">
          <valueCodeableConcept>
            <coding>
              <system value="http://snomed.info/sct"/>
              <code value="385655000"/>
              <display value="onderbroken"/>
            </coding>
          </valueCodeableConcept>
        </modifierExtension>
        <identifier>
          <system value="urn:oid:2.16.840.1.113883.2.4.3.11.999.77.16076005.1"/>
          <value value="MBH_300_onderbreken_MA_onderbreken"/>
        </identifier>
        <status value="unknown"/>
        <intent value="order"/>
        <category>
          <coding>
            <system value="http://snomed.info/sct"/>
            <code value="33633005"/>
            <display value="voorschrijven van geneesmiddel"/>
          </coding>
        </category>
        <medicationReference>
          <reference value="urn:uuid:ebaaab1d-6b29-11ec-0000-020000000000"/>
          <type value="Medication"/>
          <display value="FENETICILLINE CAPSULE 500MG"/>
        </medicationReference>
        <subject>
          <reference value="urn:uuid:d0c78ff2-6adc-11ec-0000-020000000000"/>
          <type value="Patient"/>
          <display value="Patient, C. XXX_Dongen"/>
        </subject>
        <requester>
          <reference value="urn:uuid:4560482e-6aec-11ec-0000-020000000000"/>
          <type value="PractitionerRole"/>
          <display value="Healthcare professional (role), Bertine van Doorn, Huisartsen, niet nader gespecificeerd, Huisartsenpraktijk Pulver &amp; Partners"/>
        </requester>
        <reasonCode>
          <coding>
            <system value="http://snomed.info/sct"/>
            <code value="405613005"/>
            <display value="verrichting gepland"/>
          </coding>
        </reasonCode>
        <dosageInstruction>
          <timing>
            <repeat>
              <frequency value="3"/>
              <period value="1"/>
              <periodUnit value="d"/>
            </repeat>
          </timing>
          <route>
            <coding>
              <system value="urn:oid:2.16.840.1.113883.2.4.4.9"/>
              <code value="9"/>
              <display value="Oraal"/>
            </coding>
          </route>
          <doseAndRate>
            <doseQuantity>
              <extension url="http://hl7.org/fhir/StructureDefinition/iso21090-PQ-translation">
                <valueQuantity>
                  <value value="1"/>
                  <unit value="stuk"/>
                  <system value="urn:oid:2.16.840.1.113883.2.4.4.1.900.2"/>
                  <code value="245"/>
                </valueQuantity>
              </extension>
              <value value="1"/>
              <unit value="stuk"/>
              <system value="http://unitsofmeasure.org"/>
              <code value="1"/>
            </doseQuantity>
          </doseAndRate>
        </dosageInstruction>
        <priorPrescription>
          <type value="MedicationRequest"/>
          <identifier>
            <system value="urn:oid:2.16.840.1.113883.2.4.3.11.999.77.16076005.1"/>
            <value value="MBH_300_onderbreken_MA_start"/>
          </identifier>
          <display value="relatie naar medicatieafspraak: MBH_300_onderbreken_MA_start || 2.16.840.1.113883.2.4.3.11.999.77.16076005.1"/>
        </priorPrescription>
      </MedicationRequest>
    </resource>
    <request>
      <method value="POST"/>
      <url value="MedicationRequest"/>
    </request>
  </entry>
  <entry>
    <fullUrl value="urn:uuid:08eebf8b-6ab1-11ec-0000-020000000000"/>
    <resource>
      <MedicationRequest>
        <meta>
          <profile value="http://nictiz.nl/fhir/StructureDefinition/mp-MedicationAgreement"/>
        </meta>
        <text>
          <status value="extensions"/>
          <div xmlns="http://www.w3.org/1999/xhtml">
            <table>
              <caption>MedicationRequest. Subject: Patient, C. XXX_Dongen. Id: MBH_300_TAwijzigen_MA (urn:oid:2.16.840.1.113883.2.4.3.11.999.77.16076005.1), Categorie: <span title="voorschrijven van geneesmiddel (33633005 - SNOMED CT)">voorschrijven van geneesmiddel</span>, Status: onbekend<span style="display: block;">Intentie: aanvraag</span>
                <span style="display: block;">Aangevraagd door: Healthcare professional (role), Bertine van Doorn, Huisartsen, niet nader gespecificeerd, Huisartsenpraktijk Pulver &amp; Partners</span>
              </caption>
              <tbody>
                <tr>
                  <th>Medicatie</th>
                  <td>PANTOPRAZOL 40MG TABLET MSR</td>
                </tr>
                <tr>
                  <th>Doseerinstructie</th>
                  <td>
                    <div>Timing: <div>eenmalig per dag</div>
                    </div>
                    <div>Toedieningsweg: <span title="oraal (9 - G-Standaard thesaurus subtabel 0007)">oraal</span>
                    </div>
                    <div>Dosering: doseAndRate TODO</div>
                  </td>
                </tr>
              </tbody>
            </table>
          </div>
        </text>
        <extension url="http://nictiz.nl/fhir/StructureDefinition/ext-RegistrationDateTime">
          <valueDateTime value="${DATE, T, D, -60}T11:30:00+02:00"/>
        </extension>
        <extension url="http://nictiz.nl/fhir/StructureDefinition/ext-RenderedDosageInstruction">
          <valueString value="wordt automatisch gegenereerd"/>
        </extension>
        <extension url="http://nictiz.nl/fhir/StructureDefinition/ext-TimeInterval.Period">
          <valuePeriod>
            <extension url="http://nictiz.nl/fhir/StructureDefinition/ext-TimeInterval.Duration">
              <valueDuration>
                <value value="28"/>
                <unit value="dag"/>
                <system value="http://unitsofmeasure.org"/>
                <code value="d"/>
              </valueDuration>
            </extension>
            <start value="${DATE, T, D, -60}T00:00:00+02:00"/>
          </valuePeriod>
        </extension>
        <extension url="http://nictiz.nl/fhir/StructureDefinition/ext-PharmaceuticalTreatment.Identifier">
          <valueIdentifier>
            <system value="urn:oid:2.16.840.1.113883.2.4.3.11.999.77.1.1"/>
            <value value="MBH_300_TAwijzigen"/>
          </valueIdentifier>
        </extension>
        <identifier>
          <system value="urn:oid:2.16.840.1.113883.2.4.3.11.999.77.16076005.1"/>
          <value value="MBH_300_TAwijzigen_MA"/>
        </identifier>
        <status value="unknown"/>
        <intent value="order"/>
        <category>
          <coding>
            <system value="http://snomed.info/sct"/>
            <code value="33633005"/>
            <display value="voorschrijven van geneesmiddel"/>
          </coding>
        </category>
        <medicationReference>
          <reference value="urn:uuid:7d6dcf1d-6b74-11ec-0000-020000000000"/>
          <type value="Medication"/>
          <display value="PANTOPRAZOL 40MG TABLET MSR"/>
        </medicationReference>
        <subject>
          <reference value="urn:uuid:d0c78ff2-6adc-11ec-0000-020000000000"/>
          <type value="Patient"/>
          <display value="Patient, C. XXX_Dongen"/>
        </subject>
        <requester>
          <reference value="urn:uuid:4560482e-6aec-11ec-0000-020000000000"/>
          <type value="PractitionerRole"/>
          <display value="Healthcare professional (role), Bertine van Doorn, Huisartsen, niet nader gespecificeerd, Huisartsenpraktijk Pulver &amp; Partners"/>
        </requester>
        <dosageInstruction>
          <timing>
            <repeat>
              <frequency value="1"/>
              <period value="1"/>
              <periodUnit value="d"/>
            </repeat>
          </timing>
          <route>
            <coding>
              <system value="urn:oid:2.16.840.1.113883.2.4.4.9"/>
              <code value="9"/>
              <display value="oraal"/>
            </coding>
          </route>
          <doseAndRate>
            <doseQuantity>
              <extension url="http://hl7.org/fhir/StructureDefinition/iso21090-PQ-translation">
                <valueQuantity>
                  <value value="1"/>
                  <unit value="stuk"/>
                  <system value="urn:oid:2.16.840.1.113883.2.4.4.1.900.2"/>
                  <code value="245"/>
                </valueQuantity>
              </extension>
              <value value="1"/>
              <unit value="stuk"/>
              <system value="http://unitsofmeasure.org"/>
              <code value="1"/>
            </doseQuantity>
          </doseAndRate>
        </dosageInstruction>
      </MedicationRequest>
    </resource>
    <request>
      <method value="POST"/>
      <url value="MedicationRequest"/>
    </request>
  </entry>
  <entry>
    <fullUrl value="urn:uuid:6080bb3e-6b5e-11ec-0000-020000000000"/>
    <resource>
      <MedicationRequest>
        <meta>
          <profile value="http://nictiz.nl/fhir/StructureDefinition/mp-MedicationAgreement"/>
        </meta>
        <text>
          <status value="extensions"/>
          <div xmlns="http://www.w3.org/1999/xhtml">
            <table>
              <caption>MedicationRequest. Subject: Patient, C. XXX_Dongen. Id: MBH_300_annuleren_MA_geannuleerd (urn:oid:2.16.840.1.113883.2.4.3.11.999.77.16076005.1), Categorie: <span title="voorschrijven van geneesmiddel (33633005 - SNOMED CT)">voorschrijven van geneesmiddel</span>, Status: onbekend<span style="display: block;">Intentie: aanvraag</span>
                <span style="display: block;">Aangevraagd door: Healthcare professional (role), Bertine van Doorn, Huisartsen, niet nader gespecificeerd, Huisartsenpraktijk Pulver &amp; Partners</span>
              </caption>
              <tbody>
                <tr>
                  <th>Medicatie</th>
                  <td>MEFLOQUINE TABLET 250MG</td>
                </tr>
                <tr>
                  <th>Reden</th>
                  <td>
                    <span title="Overig (OTH - http://terminology.hl7.org/CodeSystem/v3-NullFlavor)">Overig</span>
                  </td>
                </tr>
                <tr>
                  <th>Doseerinstructie</th>
                  <td>
                    <div>Timing: <div>eenmalig per week</div>
                    </div>
                    <div>Toedieningsweg: <span title="Oraal (9 - G-Standaard thesaurus subtabel 0007)">Oraal</span>
                    </div>
                    <div>Dosering: doseAndRate TODO</div>
                  </td>
                </tr>
              </tbody>
            </table>
          </div>
        </text>
        <extension url="http://nictiz.nl/fhir/StructureDefinition/ext-RegistrationDateTime">
          <valueDateTime value="${DATE, T, D, -1}T14:10:00+02:00"/>
        </extension>
        <extension url="http://nictiz.nl/fhir/StructureDefinition/ext-RenderedDosageInstruction">
          <valueString value="wordt automatisch gegenereerd"/>
        </extension>
        <extension url="http://nictiz.nl/fhir/StructureDefinition/ext-TimeInterval.Period">
          <valuePeriod>
            <start value="${DATE, T, D, +7}T00:00:00+02:00"/>
            <end value="${DATE, T, D, +7}T00:00:00+02:00"/>
          </valuePeriod>
        </extension>
        <extension url="http://nictiz.nl/fhir/StructureDefinition/ext-PharmaceuticalTreatment.Identifier">
          <valueIdentifier>
            <system value="urn:oid:2.16.840.1.113883.2.4.3.11.999.77.1.1"/>
            <value value="MBH_300_annuleren"/>
          </valueIdentifier>
        </extension>
        <modifierExtension url="http://nictiz.nl/fhir/StructureDefinition/ext-StopType">
          <valueCodeableConcept>
            <coding>
              <system value="http://snomed.info/sct"/>
              <code value="89925002"/>
              <display value="geannuleerd"/>
            </coding>
          </valueCodeableConcept>
        </modifierExtension>
        <identifier>
          <system value="urn:oid:2.16.840.1.113883.2.4.3.11.999.77.16076005.1"/>
          <value value="MBH_300_annuleren_MA_geannuleerd"/>
        </identifier>
        <status value="unknown"/>
        <intent value="order"/>
        <category>
          <coding>
            <system value="http://snomed.info/sct"/>
            <code value="33633005"/>
            <display value="voorschrijven van geneesmiddel"/>
          </coding>
        </category>
        <medicationReference>
          <reference value="urn:uuid:9c15ed1d-6af4-11ec-0000-020000000000"/>
          <type value="Medication"/>
          <display value="MEFLOQUINE TABLET 250MG"/>
        </medicationReference>
        <subject>
          <reference value="urn:uuid:d0c78ff2-6adc-11ec-0000-020000000000"/>
          <type value="Patient"/>
          <display value="Patient, C. XXX_Dongen"/>
        </subject>
        <requester>
          <reference value="urn:uuid:4560482e-6aec-11ec-0000-020000000000"/>
          <type value="PractitionerRole"/>
          <display value="Healthcare professional (role), Bertine van Doorn, Huisartsen, niet nader gespecificeerd, Huisartsenpraktijk Pulver &amp; Partners"/>
        </requester>
        <reasonCode>
          <coding>
            <system value="http://terminology.hl7.org/CodeSystem/v3-NullFlavor"/>
            <code value="OTH"/>
            <display value="Overig"/>
          </coding>
        </reasonCode>
        <dosageInstruction>
          <timing>
            <repeat>
              <frequency value="1"/>
              <period value="1"/>
              <periodUnit value="wk"/>
            </repeat>
          </timing>
          <route>
            <coding>
              <system value="urn:oid:2.16.840.1.113883.2.4.4.9"/>
              <code value="9"/>
              <display value="Oraal"/>
            </coding>
          </route>
          <doseAndRate>
            <doseQuantity>
              <extension url="http://hl7.org/fhir/StructureDefinition/iso21090-PQ-translation">
                <valueQuantity>
                  <value value="1"/>
                  <unit value="stuk"/>
                  <system value="urn:oid:2.16.840.1.113883.2.4.4.1.900.2"/>
                  <code value="245"/>
                </valueQuantity>
              </extension>
              <value value="1"/>
              <unit value="stuk"/>
              <system value="http://unitsofmeasure.org"/>
              <code value="1"/>
            </doseQuantity>
          </doseAndRate>
        </dosageInstruction>
        <priorPrescription>
          <type value="MedicationRequest"/>
          <identifier>
            <system value="urn:oid:2.16.840.1.113883.2.4.3.11.999.77.16076005.1"/>
            <value value="MBH_300_annuleren_MA_starten"/>
          </identifier>
          <display value="relatie naar medicatieafspraak: MBH_300_annuleren_MA_starten || 2.16.840.1.113883.2.4.3.11.999.77.16076005.1"/>
        </priorPrescription>
      </MedicationRequest>
    </resource>
    <request>
      <method value="POST"/>
      <url value="MedicationRequest"/>
    </request>
  </entry>
  <entry>
    <fullUrl value="urn:uuid:90b50b3e-6acd-11ec-0000-020000000000"/>
    <resource>
      <MedicationRequest>
        <meta>
          <profile value="http://nictiz.nl/fhir/StructureDefinition/mp-MedicationAgreement"/>
        </meta>
        <text>
          <status value="extensions"/>
          <div xmlns="http://www.w3.org/1999/xhtml">
            <table>
              <caption>MedicationRequest. Subject: Patient, C. XXX_Dongen. Id: MBH_300_VolgendeBehandelaar_MA_Start1 (urn:oid:2.16.840.1.113883.2.4.3.11.999.77.16076005.1), Categorie: <span title="voorschrijven van geneesmiddel (33633005 - SNOMED CT)">voorschrijven van geneesmiddel</span>, Status: onbekend<span style="display: block;">Intentie: aanvraag</span>
                <span style="display: block;">Aangevraagd door: Healthcare professional (role), Bertine van Doorn, Huisartsen, niet nader gespecificeerd, Huisartsenpraktijk Pulver &amp; Partners</span>
              </caption>
              <tbody>
                <tr>
                  <th>Medicatie</th>
                  <td>APIXABAN TABLET 5MG</td>
                </tr>
                <tr>
                  <th>Doseerinstructie</th>
                  <td>
                    <div>Timing: <div>eenmalig per dag</div>
                    </div>
                    <div>Toedieningsweg: <span title="Oraal (9 - G-Standaard thesaurus subtabel 0007)">Oraal</span>
                    </div>
                    <div>Dosering: doseAndRate TODO</div>
                  </td>
                </tr>
              </tbody>
            </table>
          </div>
        </text>
        <extension url="http://nictiz.nl/fhir/StructureDefinition/ext-RegistrationDateTime">
          <valueDateTime value="${DATE, T, D, -50}T12:00:00+02:00"/>
        </extension>
        <extension url="http://nictiz.nl/fhir/StructureDefinition/ext-RenderedDosageInstruction">
          <valueString value="wordt automatisch gegenereerd"/>
        </extension>
        <extension url="http://nictiz.nl/fhir/StructureDefinition/ext-TimeInterval.Period">
          <valuePeriod>
            <start value="${DATE, T, D, -50}T00:00:00+02:00"/>
            <end value="${DATE, T, D, +50}T23:59:59+02:00"/>
          </valuePeriod>
        </extension>
        <extension url="http://nictiz.nl/fhir/StructureDefinition/ext-PharmaceuticalTreatment.Identifier">
          <valueIdentifier>
            <system value="urn:oid:2.16.840.1.113883.2.4.3.11.999.77.1.1"/>
            <value value="MBH_300_VolgendeBehandelaar"/>
          </valueIdentifier>
        </extension>
        <identifier>
          <system value="urn:oid:2.16.840.1.113883.2.4.3.11.999.77.16076005.1"/>
          <value value="MBH_300_VolgendeBehandelaar_MA_Start1"/>
        </identifier>
        <status value="unknown"/>
        <intent value="order"/>
        <category>
          <coding>
            <system value="http://snomed.info/sct"/>
            <code value="33633005"/>
            <display value="voorschrijven van geneesmiddel"/>
          </coding>
        </category>
        <medicationReference>
          <reference value="urn:uuid:86a337e9-6aaf-11ec-0000-020000000000"/>
          <type value="Medication"/>
          <display value="APIXABAN TABLET 5MG"/>
        </medicationReference>
        <subject>
          <reference value="urn:uuid:d0c78ff2-6adc-11ec-0000-020000000000"/>
          <type value="Patient"/>
          <display value="Patient, C. XXX_Dongen"/>
        </subject>
        <requester>
          <reference value="urn:uuid:4560482e-6aec-11ec-0000-020000000000"/>
          <type value="PractitionerRole"/>
          <display value="Healthcare professional (role), Bertine van Doorn, Huisartsen, niet nader gespecificeerd, Huisartsenpraktijk Pulver &amp; Partners"/>
        </requester>
        <dosageInstruction>
          <timing>
            <repeat>
              <frequency value="1"/>
              <period value="1"/>
              <periodUnit value="d"/>
            </repeat>
          </timing>
          <route>
            <coding>
              <system value="urn:oid:2.16.840.1.113883.2.4.4.9"/>
              <code value="9"/>
              <display value="Oraal"/>
            </coding>
          </route>
          <doseAndRate>
            <doseQuantity>
              <extension url="http://hl7.org/fhir/StructureDefinition/iso21090-PQ-translation">
                <valueQuantity>
                  <value value="1"/>
                  <unit value="stuk"/>
                  <system value="urn:oid:2.16.840.1.113883.2.4.4.1.900.2"/>
                  <code value="245"/>
                </valueQuantity>
              </extension>
              <value value="1"/>
              <unit value="stuk"/>
              <system value="http://unitsofmeasure.org"/>
              <code value="1"/>
            </doseQuantity>
          </doseAndRate>
        </dosageInstruction>
      </MedicationRequest>
    </resource>
    <request>
      <method value="POST"/>
      <url value="MedicationRequest"/>
    </request>
  </entry>
  <entry>
    <fullUrl value="urn:uuid:50952b9b-6add-11ec-0000-020000000000"/>
    <resource>
      <MedicationRequest>
        <meta>
          <profile value="http://nictiz.nl/fhir/StructureDefinition/mp-MedicationAgreement"/>
        </meta>
        <text>
          <status value="extensions"/>
          <div xmlns="http://www.w3.org/1999/xhtml">
            <table>
              <caption>MedicationRequest. Subject: Patient, C. XXX_Dongen. Id: MBH_300_VolgendeBehandelaar_MA_Stop1 (urn:oid:2.16.840.1.113883.2.4.3.11.999.77.16076005.1), Categorie: <span title="voorschrijven van geneesmiddel (33633005 - SNOMED CT)">voorschrijven van geneesmiddel</span>, Status: onbekend<span style="display: block;">Intentie: aanvraag</span>
                <span style="display: block;">Aangevraagd door: Healthcare professional (role), Jan van Harten, Medisch specialisten, chirurgie, Ziekenhuis het Gele Hart</span>
              </caption>
              <tbody>
                <tr>
                  <th>Medicatie</th>
                  <td>APIXABAN TABLET 5MG</td>
                </tr>
                <tr>
                  <th>Reden</th>
                  <td>
                    <span title="opname in instelling (305335007 - SNOMED CT)">opname in instelling</span>
                  </td>
                </tr>
                <tr>
                  <th>Doseerinstructie</th>
                  <td>
                    <div>Timing: <div>eenmalig per dag</div>
                    </div>
                    <div>Toedieningsweg: <span title="Oraal (9 - G-Standaard thesaurus subtabel 0007)">Oraal</span>
                    </div>
                    <div>Dosering: doseAndRate TODO</div>
                  </td>
                </tr>
              </tbody>
            </table>
          </div>
        </text>
        <extension url="http://nictiz.nl/fhir/StructureDefinition/ext-RegistrationDateTime">
          <valueDateTime value="${DATE, T, D, -1}T13:00:00+02:00"/>
        </extension>
        <extension url="http://nictiz.nl/fhir/StructureDefinition/ext-RenderedDosageInstruction">
          <valueString value="wordt automatisch gegenereerd"/>
        </extension>
        <extension url="http://nictiz.nl/fhir/StructureDefinition/ext-TimeInterval.Period">
          <valuePeriod>
            <start value="${DATE, T, D, -50}T00:00:00+02:00"/>
            <end value="${DATE, T, D, -1}T23:59:59+02:00"/>
          </valuePeriod>
        </extension>
        <extension url="http://nictiz.nl/fhir/StructureDefinition/ext-PharmaceuticalTreatment.Identifier">
          <valueIdentifier>
            <system value="urn:oid:2.16.840.1.113883.2.4.3.11.999.77.1.1"/>
            <value value="MBH_300_VolgendeBehandelaar"/>
          </valueIdentifier>
        </extension>
        <modifierExtension url="http://nictiz.nl/fhir/StructureDefinition/ext-StopType">
          <valueCodeableConcept>
            <coding>
              <system value="http://snomed.info/sct"/>
              <code value="385655000"/>
              <display value="onderbroken"/>
            </coding>
          </valueCodeableConcept>
        </modifierExtension>
        <identifier>
          <system value="urn:oid:2.16.840.1.113883.2.4.3.11.999.77.16076005.1"/>
          <value value="MBH_300_VolgendeBehandelaar_MA_Stop1"/>
        </identifier>
        <status value="unknown"/>
        <intent value="order"/>
        <category>
          <coding>
            <system value="http://snomed.info/sct"/>
            <code value="33633005"/>
            <display value="voorschrijven van geneesmiddel"/>
          </coding>
        </category>
        <medicationReference>
          <reference value="urn:uuid:86a337e9-6aaf-11ec-0000-020000000000"/>
          <type value="Medication"/>
          <display value="APIXABAN TABLET 5MG"/>
        </medicationReference>
        <subject>
          <reference value="urn:uuid:d0c78ff2-6adc-11ec-0000-020000000000"/>
          <type value="Patient"/>
          <display value="Patient, C. XXX_Dongen"/>
        </subject>
        <requester>
          <reference value="urn:uuid:2df71558-6b6c-11ec-0000-020000000000"/>
          <type value="PractitionerRole"/>
          <display value="Healthcare professional (role), Jan van Harten, Medisch specialisten, chirurgie, Ziekenhuis het Gele Hart"/>
        </requester>
        <reasonCode>
          <coding>
            <system value="http://snomed.info/sct"/>
            <code value="305335007"/>
            <display value="opname in instelling"/>
          </coding>
        </reasonCode>
        <dosageInstruction>
          <timing>
            <repeat>
              <frequency value="1"/>
              <period value="1"/>
              <periodUnit value="d"/>
            </repeat>
          </timing>
          <route>
            <coding>
              <system value="urn:oid:2.16.840.1.113883.2.4.4.9"/>
              <code value="9"/>
              <display value="Oraal"/>
            </coding>
          </route>
          <doseAndRate>
            <doseQuantity>
              <extension url="http://hl7.org/fhir/StructureDefinition/iso21090-PQ-translation">
                <valueQuantity>
                  <value value="1"/>
                  <unit value="stuk"/>
                  <system value="urn:oid:2.16.840.1.113883.2.4.4.1.900.2"/>
                  <code value="245"/>
                </valueQuantity>
              </extension>
              <value value="1"/>
              <unit value="stuk"/>
              <system value="http://unitsofmeasure.org"/>
              <code value="1"/>
            </doseQuantity>
          </doseAndRate>
        </dosageInstruction>
        <priorPrescription>
          <type value="MedicationRequest"/>
          <identifier>
            <system value="urn:oid:2.16.840.1.113883.2.4.3.11.999.77.16076005.1"/>
            <value value="MBH_300_VolgendeBehandelaar_MA_Start1"/>
          </identifier>
          <display value="relatie naar medicatieafspraak: MBH_300_VolgendeBehandelaar_MA_Start1 || 2.16.840.1.113883.2.4.3.11.999.77.16076005.1"/>
        </priorPrescription>
      </MedicationRequest>
    </resource>
    <request>
      <method value="POST"/>
      <url value="MedicationRequest"/>
    </request>
  </entry>
  <entry>
    <fullUrl value="urn:uuid:1d05d19b-6adc-11ec-0000-020000000000"/>
    <resource>
      <MedicationRequest>
        <meta>
          <profile value="http://nictiz.nl/fhir/StructureDefinition/mp-MedicationAgreement"/>
        </meta>
        <text>
          <status value="extensions"/>
          <div xmlns="http://www.w3.org/1999/xhtml">
            <table>
              <caption>MedicationRequest. Subject: Patient, C. XXX_Dongen. Id: MBH_300_VolgendeBehandelaar_MA_Start2 (urn:oid:2.16.840.1.113883.2.4.3.11.999.77.16076005.1), Categorie: <span title="voorschrijven van geneesmiddel (33633005 - SNOMED CT)">voorschrijven van geneesmiddel</span>, Status: onbekend<span style="display: block;">Intentie: aanvraag</span>
                <span style="display: block;">Aangevraagd door: Healthcare professional (role), Jan van Harten, Medisch specialisten, chirurgie, Ziekenhuis het Gele Hart</span>
              </caption>
              <tbody>
                <tr>
                  <th>Medicatie</th>
                  <td>APIXABAN TABLET 5MG</td>
                </tr>
                <tr>
                  <th>Reden</th>
                  <td>
                    <span title="hervatten van beleid van vorige voorschrijver (112261000146100 - SNOMED CT)">hervatten van beleid van vorige voorschrijver</span>
                  </td>
                </tr>
                <tr>
                  <th>Doseerinstructie</th>
                  <td>
                    <div>Timing: <div>eenmalig per dag</div>
                    </div>
                    <div>Toedieningsweg: <span title="Oraal (9 - G-Standaard thesaurus subtabel 0007)">Oraal</span>
                    </div>
                    <div>Dosering: doseAndRate TODO</div>
                  </td>
                </tr>
              </tbody>
            </table>
          </div>
        </text>
        <extension url="http://nictiz.nl/fhir/StructureDefinition/ext-RegistrationDateTime">
          <valueDateTime value="${DATE, T, D, -1}T13:00:00+02:00"/>
        </extension>
        <extension url="http://nictiz.nl/fhir/StructureDefinition/ext-RenderedDosageInstruction">
          <valueString value="wordt automatisch gegenereerd"/>
        </extension>
        <extension url="http://nictiz.nl/fhir/StructureDefinition/ext-TimeInterval.Period">
          <valuePeriod>
            <start value="${DATE, T, D, +3}T00:00:00+02:00"/>
            <end value="${DATE, T, D, +50}T23:59:59+02:00"/>
          </valuePeriod>
        </extension>
        <extension url="http://nictiz.nl/fhir/StructureDefinition/ext-PharmaceuticalTreatment.Identifier">
          <valueIdentifier>
            <system value="urn:oid:2.16.840.1.113883.2.4.3.11.999.77.1.1"/>
            <value value="MBH_300_VolgendeBehandelaar"/>
          </valueIdentifier>
        </extension>
        <extension url="http://nictiz.nl/fhir/StructureDefinition/ext-MedicationAgreement.NextPractitioner">
          <valueReference>
            <reference value="urn:uuid:4560482e-6aec-11ec-0000-020000000000"/>
            <type value="PractitionerRole"/>
            <display value="Healthcare professional (role), Bertine van Doorn, Huisartsen, niet nader gespecificeerd, Huisartsenpraktijk Pulver &amp; Partners"/>
          </valueReference>
        </extension>
        <identifier>
          <system value="urn:oid:2.16.840.1.113883.2.4.3.11.999.77.16076005.1"/>
          <value value="MBH_300_VolgendeBehandelaar_MA_Start2"/>
        </identifier>
        <status value="unknown"/>
        <intent value="order"/>
        <category>
          <coding>
            <system value="http://snomed.info/sct"/>
            <code value="33633005"/>
            <display value="voorschrijven van geneesmiddel"/>
          </coding>
        </category>
        <medicationReference>
          <reference value="urn:uuid:86a337e9-6aaf-11ec-0000-020000000000"/>
          <type value="Medication"/>
          <display value="APIXABAN TABLET 5MG"/>
        </medicationReference>
        <subject>
          <reference value="urn:uuid:d0c78ff2-6adc-11ec-0000-020000000000"/>
          <type value="Patient"/>
          <display value="Patient, C. XXX_Dongen"/>
        </subject>
        <requester>
          <reference value="urn:uuid:2df71558-6b6c-11ec-0000-020000000000"/>
          <type value="PractitionerRole"/>
          <display value="Healthcare professional (role), Jan van Harten, Medisch specialisten, chirurgie, Ziekenhuis het Gele Hart"/>
        </requester>
        <reasonCode>
          <coding>
            <system value="http://snomed.info/sct"/>
            <code value="112261000146100"/>
            <display value="hervatten van beleid van vorige voorschrijver"/>
          </coding>
        </reasonCode>
        <dosageInstruction>
          <timing>
            <repeat>
              <frequency value="1"/>
              <period value="1"/>
              <periodUnit value="d"/>
            </repeat>
          </timing>
          <route>
            <coding>
              <system value="urn:oid:2.16.840.1.113883.2.4.4.9"/>
              <code value="9"/>
              <display value="Oraal"/>
            </coding>
          </route>
          <doseAndRate>
            <doseQuantity>
              <extension url="http://hl7.org/fhir/StructureDefinition/iso21090-PQ-translation">
                <valueQuantity>
                  <value value="1"/>
                  <unit value="stuk"/>
                  <system value="urn:oid:2.16.840.1.113883.2.4.4.1.900.2"/>
                  <code value="245"/>
                </valueQuantity>
              </extension>
              <value value="1"/>
              <unit value="stuk"/>
              <system value="http://unitsofmeasure.org"/>
              <code value="1"/>
            </doseQuantity>
          </doseAndRate>
        </dosageInstruction>
        <priorPrescription>
          <type value="MedicationRequest"/>
          <identifier>
            <system value="urn:oid:2.16.840.1.113883.2.4.3.11.999.77.16076005.1"/>
            <value value="MBH_300_VolgendeBehandelaar_MA_Start1"/>
          </identifier>
          <display value="relatie naar medicatieafspraak: MBH_300_VolgendeBehandelaar_MA_Start1 || 2.16.840.1.113883.2.4.3.11.999.77.16076005.1"/>
        </priorPrescription>
      </MedicationRequest>
    </resource>
    <request>
      <method value="POST"/>
      <url value="MedicationRequest"/>
    </request>
  </entry>
  <entry>
    <fullUrl value="urn:uuid:ff9c54cb-6aaa-11ec-0000-020000000000"/>
    <resource>
      <MedicationRequest>
        <meta>
          <profile value="http://nictiz.nl/fhir/StructureDefinition/mp-MedicationAgreement"/>
        </meta>
        <text>
          <status value="extensions"/>
          <div xmlns="http://www.w3.org/1999/xhtml">
            <table>
              <caption>MedicationRequest. Subject: Patient, C. XXX_Dongen. Id: MBH_300_stoppen_parallele_TA_MA_start (urn:oid:2.16.840.1.113883.2.4.3.11.999.77.16076005.1), Categorie: <span title="voorschrijven van geneesmiddel (33633005 - SNOMED CT)">voorschrijven van geneesmiddel</span>, Status: onbekend<span style="display: block;">Intentie: aanvraag</span>
                <span style="display: block;">Aangevraagd door: Healthcare professional (role), Jan van Harten, Medisch specialisten, chirurgie, Ziekenhuis het Gele Hart</span>
              </caption>
              <tbody>
                <tr>
                  <th>Medicatie</th>
                  <td>PANTOPRAZOL 40MG TABLET MSR</td>
                </tr>
                <tr>
                  <th>Doseerinstructie</th>
                  <td>
                    <div>Volgnummer: 1</div>
                    <div>Timing: <div>MORN</div>
                    </div>
                    <div>Toedieningsweg: <span title="Oraal (9 - G-Standaard thesaurus subtabel 0007)">Oraal</span>
                    </div>
                    <div>Dosering: doseAndRate TODO</div>
                  </td>
                </tr>
                <tr>
                  <th>Doseerinstructie</th>
                  <td>
                    <div>Volgnummer: 1</div>
                    <div>Timing: <div>EVE</div>
                    </div>
                    <div>Zo nodig: <span title="Bij pijn (1028 - nhg-tabel-25-gebruiksvoorschrift#aanvullend-numeriek)">Bij pijn</span>
                    </div>
                    <div>Toedieningsweg: <span title="Oraal (9 - G-Standaard thesaurus subtabel 0007)">Oraal</span>
                    </div>
                    <div>Dosering: doseAndRate TODO</div>
                  </td>
                </tr>
              </tbody>
            </table>
          </div>
        </text>
        <extension url="http://nictiz.nl/fhir/StructureDefinition/ext-RegistrationDateTime">
          <valueDateTime value="${DATE, T, D, -15}T09:05:00+02:00"/>
        </extension>
        <extension url="http://nictiz.nl/fhir/StructureDefinition/ext-RenderedDosageInstruction">
          <valueString value="wordt automatisch gevuld"/>
        </extension>
        <extension url="http://nictiz.nl/fhir/StructureDefinition/ext-TimeInterval.Period">
          <valuePeriod>
            <extension url="http://nictiz.nl/fhir/StructureDefinition/ext-TimeInterval.Duration">
              <valueDuration>
                <value value="28"/>
                <unit value="dag"/>
                <system value="http://unitsofmeasure.org"/>
                <code value="d"/>
              </valueDuration>
            </extension>
            <start value="${DATE, T, D, -14}T00:00:00+02:00"/>
          </valuePeriod>
        </extension>
        <extension url="http://nictiz.nl/fhir/StructureDefinition/ext-PharmaceuticalTreatment.Identifier">
          <valueIdentifier>
            <system value="urn:oid:2.16.840.1.113883.2.4.3.11.999.77.1.1"/>
            <value value="MBH_300_stoppen_parallele_TA"/>
          </valueIdentifier>
        </extension>
        <identifier>
          <system value="urn:oid:2.16.840.1.113883.2.4.3.11.999.77.16076005.1"/>
          <value value="MBH_300_stoppen_parallele_TA_MA_start"/>
        </identifier>
        <status value="unknown"/>
        <intent value="order"/>
        <category>
          <coding>
            <system value="http://snomed.info/sct"/>
            <code value="33633005"/>
            <display value="voorschrijven van geneesmiddel"/>
          </coding>
        </category>
        <medicationReference>
          <reference value="urn:uuid:7d6dcf1d-6b74-11ec-0000-020000000000"/>
          <type value="Medication"/>
          <display value="PANTOPRAZOL 40MG TABLET MSR"/>
        </medicationReference>
        <subject>
          <reference value="urn:uuid:d0c78ff2-6adc-11ec-0000-020000000000"/>
          <type value="Patient"/>
          <display value="Patient, C. XXX_Dongen"/>
        </subject>
        <requester>
          <reference value="urn:uuid:2df71558-6b6c-11ec-0000-020000000000"/>
          <type value="PractitionerRole"/>
          <display value="Healthcare professional (role), Jan van Harten, Medisch specialisten, chirurgie, Ziekenhuis het Gele Hart"/>
        </requester>
        <dosageInstruction>
          <sequence value="1"/>
          <timing>
            <repeat>
              <when value="MORN"/>
            </repeat>
          </timing>
          <route>
            <coding>
              <system value="urn:oid:2.16.840.1.113883.2.4.4.9"/>
              <code value="9"/>
              <display value="Oraal"/>
            </coding>
          </route>
          <doseAndRate>
            <doseQuantity>
              <extension url="http://hl7.org/fhir/StructureDefinition/iso21090-PQ-translation">
                <valueQuantity>
                  <value value="1"/>
                  <unit value="stuk"/>
                  <system value="urn:oid:2.16.840.1.113883.2.4.4.1.900.2"/>
                  <code value="245"/>
                </valueQuantity>
              </extension>
              <value value="1"/>
              <unit value="stuk"/>
              <system value="http://unitsofmeasure.org"/>
              <code value="1"/>
            </doseQuantity>
          </doseAndRate>
        </dosageInstruction>
        <dosageInstruction>
          <sequence value="1"/>
          <timing>
            <repeat>
              <when value="EVE"/>
            </repeat>
          </timing>
          <asNeededCodeableConcept>
            <coding>
              <system value="https://referentiemodel.nhg.org/tabellen/nhg-tabel-25-gebruiksvoorschrift#aanvullend-numeriek"/>
              <code value="1028"/>
              <display value="Bij pijn"/>
            </coding>
          </asNeededCodeableConcept>
          <route>
            <coding>
              <system value="urn:oid:2.16.840.1.113883.2.4.4.9"/>
              <code value="9"/>
              <display value="Oraal"/>
            </coding>
          </route>
          <doseAndRate>
            <doseQuantity>
              <extension url="http://hl7.org/fhir/StructureDefinition/iso21090-PQ-translation">
                <valueQuantity>
                  <value value="1"/>
                  <unit value="stuk"/>
                  <system value="urn:oid:2.16.840.1.113883.2.4.4.1.900.2"/>
                  <code value="245"/>
                </valueQuantity>
              </extension>
              <value value="1"/>
              <unit value="stuk"/>
              <system value="http://unitsofmeasure.org"/>
              <code value="1"/>
            </doseQuantity>
          </doseAndRate>
        </dosageInstruction>
      </MedicationRequest>
    </resource>
    <request>
      <method value="POST"/>
      <url value="MedicationRequest"/>
    </request>
  </entry>
  <entry>
    <fullUrl value="urn:uuid:48a36f5d-6a9b-11ec-0000-020000000000"/>
    <resource>
      <MedicationRequest>
        <meta>
          <profile value="http://nictiz.nl/fhir/StructureDefinition/mp-MedicationAgreement"/>
        </meta>
        <text>
          <status value="extensions"/>
          <div xmlns="http://www.w3.org/1999/xhtml">
            <table>
              <caption>MedicationRequest. Subject: Patient, C. XXX_Dongen. Id: MBH_300_MTDopschorten_MA (urn:oid:2.16.840.1.113883.2.4.3.11.999.77.16076005.1), Categorie: <span title="voorschrijven van geneesmiddel (33633005 - SNOMED CT)">voorschrijven van geneesmiddel</span>, Status: onbekend<span style="display: block;">Intentie: aanvraag</span>
                <span style="display: block;">Aangevraagd door: Healthcare professional (role), Bertine van Doorn, Huisartsen, niet nader gespecificeerd, Huisartsenpraktijk Pulver &amp; Partners</span>
              </caption>
              <tbody>
                <tr>
                  <th>Medicatie</th>
                  <td>PROPRANOLOL TABLET 80MG</td>
                </tr>
                <tr>
                  <th>Doseerinstructie</th>
                  <td>
                    <div>Timing: <div>eenmalig per dag</div>
                    </div>
                    <div>Toedieningsweg: <span title="oraal (9 - G-Standaard thesaurus subtabel 0007)">oraal</span>
                    </div>
                    <div>Dosering: doseAndRate TODO</div>
                  </td>
                </tr>
              </tbody>
            </table>
          </div>
        </text>
        <extension url="http://nictiz.nl/fhir/StructureDefinition/ext-RegistrationDateTime">
          <valueDateTime value="${DATE, T, D, -5}T10:44:06+02:00"/>
        </extension>
        <extension url="http://nictiz.nl/fhir/StructureDefinition/ext-RenderedDosageInstruction">
          <valueString value="wordt gegenereerd"/>
        </extension>
        <extension url="http://nictiz.nl/fhir/StructureDefinition/ext-TimeInterval.Period">
          <valuePeriod>
            <start value="${DATE, T, D, -5}T00:00:00+02:00"/>
          </valuePeriod>
        </extension>
        <extension url="http://nictiz.nl/fhir/StructureDefinition/ext-PharmaceuticalTreatment.Identifier">
          <valueIdentifier>
            <system value="urn:oid:2.16.840.1.113883.2.4.3.11.999.77.1.1"/>
            <value value="MBH_300_MTDopschorten"/>
          </valueIdentifier>
        </extension>
        <identifier>
          <system value="urn:oid:2.16.840.1.113883.2.4.3.11.999.77.16076005.1"/>
          <value value="MBH_300_MTDopschorten_MA"/>
        </identifier>
        <status value="unknown"/>
        <intent value="order"/>
        <category>
          <coding>
            <system value="http://snomed.info/sct"/>
            <code value="33633005"/>
            <display value="voorschrijven van geneesmiddel"/>
          </coding>
        </category>
        <medicationReference>
          <reference value="urn:uuid:79b3fce9-6b3b-11ec-0000-020000000000"/>
          <type value="Medication"/>
          <display value="PROPRANOLOL TABLET 80MG"/>
        </medicationReference>
        <subject>
          <reference value="urn:uuid:d0c78ff2-6adc-11ec-0000-020000000000"/>
          <type value="Patient"/>
          <display value="Patient, C. XXX_Dongen"/>
        </subject>
        <requester>
          <reference value="urn:uuid:4560482e-6aec-11ec-0000-020000000000"/>
          <type value="PractitionerRole"/>
          <display value="Healthcare professional (role), Bertine van Doorn, Huisartsen, niet nader gespecificeerd, Huisartsenpraktijk Pulver &amp; Partners"/>
        </requester>
        <dosageInstruction>
          <timing>
            <repeat>
              <frequency value="1"/>
              <period value="1"/>
              <periodUnit value="d"/>
            </repeat>
          </timing>
          <route>
            <coding>
              <system value="urn:oid:2.16.840.1.113883.2.4.4.9"/>
              <code value="9"/>
              <display value="oraal"/>
            </coding>
          </route>
          <doseAndRate>
            <doseQuantity>
              <extension url="http://hl7.org/fhir/StructureDefinition/iso21090-PQ-translation">
                <valueQuantity>
                  <value value="1"/>
                  <unit value="stuk"/>
                  <system value="urn:oid:2.16.840.1.113883.2.4.4.1.900.2"/>
                  <code value="245"/>
                </valueQuantity>
              </extension>
              <value value="1"/>
              <unit value="stuk"/>
              <system value="http://unitsofmeasure.org"/>
              <code value="1"/>
            </doseQuantity>
          </doseAndRate>
        </dosageInstruction>
      </MedicationRequest>
    </resource>
    <request>
      <method value="POST"/>
      <url value="MedicationRequest"/>
    </request>
  </entry>
  <entry>
    <fullUrl value="urn:uuid:1adddb3e-6acd-11ec-0000-020000000000"/>
    <resource>
      <MedicationRequest>
        <meta>
          <profile value="http://nictiz.nl/fhir/StructureDefinition/mp-MedicationAgreement"/>
        </meta>
        <text>
          <status value="extensions"/>
          <div xmlns="http://www.w3.org/1999/xhtml">
            <table>
              <caption>MedicationRequest. Subject: Patient, C. XXX_Dongen. Id: mbh_300_AfwijkendeToediening_MA (urn:oid:2.16.840.1.113883.2.4.3.11.999.77.16076005.1), Categorie: <span title="voorschrijven van geneesmiddel (33633005 - SNOMED CT)">voorschrijven van geneesmiddel</span>, Status: onbekend<span style="display: block;">Intentie: aanvraag</span>
                <span style="display: block;">Aangevraagd door: Healthcare professional (role), Jan van Harten, Medisch specialisten, chirurgie, Ziekenhuis het Gele Hart</span>
              </caption>
              <tbody>
                <tr>
                  <th>Medicatie</th>
                  <td>AMLODIPINE TABLET 5MG</td>
                </tr>
                <tr>
                  <th>Doseerinstructie</th>
                  <td>
                    <div>Timing: <div>eenmalig per dag</div>
                    </div>
                    <div>Toedieningsweg: <span title="Oraal (9 - G-Standaard thesaurus subtabel 0007)">Oraal</span>
                    </div>
                    <div>Dosering: doseAndRate TODO</div>
                  </td>
                </tr>
              </tbody>
            </table>
          </div>
        </text>
        <extension url="http://nictiz.nl/fhir/StructureDefinition/ext-RegistrationDateTime">
          <valueDateTime value="${DATE, T, D, -1}T09:00:00+02:00"/>
        </extension>
        <extension url="http://nictiz.nl/fhir/StructureDefinition/ext-RenderedDosageInstruction">
          <valueString value="Wordt gegenereerd"/>
        </extension>
        <extension url="http://nictiz.nl/fhir/StructureDefinition/ext-TimeInterval.Period">
          <valuePeriod>
            <start value="${DATE, T, D, -1}T00:00:00+02:00"/>
          </valuePeriod>
        </extension>
        <extension url="http://nictiz.nl/fhir/StructureDefinition/ext-PharmaceuticalTreatment.Identifier">
          <valueIdentifier>
            <system value="urn:oid:2.16.840.1.113883.2.4.3.11.999.77.1.1"/>
            <value value="mbh_300_AfwijkendeToediening"/>
          </valueIdentifier>
        </extension>
        <identifier>
          <system value="urn:oid:2.16.840.1.113883.2.4.3.11.999.77.16076005.1"/>
          <value value="mbh_300_AfwijkendeToediening_MA"/>
        </identifier>
        <status value="unknown"/>
        <intent value="order"/>
        <category>
          <coding>
            <system value="http://snomed.info/sct"/>
            <code value="33633005"/>
            <display value="voorschrijven van geneesmiddel"/>
          </coding>
        </category>
        <medicationReference>
          <reference value="urn:uuid:1f769be9-6a9e-11ec-0000-020000000000"/>
          <type value="Medication"/>
          <display value="AMLODIPINE TABLET 5MG"/>
        </medicationReference>
        <subject>
          <reference value="urn:uuid:d0c78ff2-6adc-11ec-0000-020000000000"/>
          <type value="Patient"/>
          <display value="Patient, C. XXX_Dongen"/>
        </subject>
        <requester>
          <reference value="urn:uuid:2df71558-6b6c-11ec-0000-020000000000"/>
          <type value="PractitionerRole"/>
          <display value="Healthcare professional (role), Jan van Harten, Medisch specialisten, chirurgie, Ziekenhuis het Gele Hart"/>
        </requester>
        <dosageInstruction>
          <timing>
            <repeat>
              <frequency value="1"/>
              <period value="1"/>
              <periodUnit value="d"/>
            </repeat>
          </timing>
          <route>
            <coding>
              <system value="urn:oid:2.16.840.1.113883.2.4.4.9"/>
              <code value="9"/>
              <display value="Oraal"/>
            </coding>
          </route>
          <doseAndRate>
            <doseQuantity>
              <extension url="http://hl7.org/fhir/StructureDefinition/iso21090-PQ-translation">
                <valueQuantity>
                  <value value="2"/>
                  <unit value="stuks"/>
                  <system value="urn:oid:2.16.840.1.113883.2.4.4.1.900.2"/>
                  <code value="245"/>
                </valueQuantity>
              </extension>
              <value value="2"/>
              <unit value="stuks"/>
              <system value="http://unitsofmeasure.org"/>
              <code value="1"/>
            </doseQuantity>
          </doseAndRate>
        </dosageInstruction>
      </MedicationRequest>
    </resource>
    <request>
      <method value="POST"/>
      <url value="MedicationRequest"/>
    </request>
  </entry>
  <entry>
    <fullUrl value="urn:uuid:bd83886b-6b36-11ec-0000-020000000000"/>
    <resource>
      <MedicationRequest>
        <meta>
          <profile value="http://nictiz.nl/fhir/StructureDefinition/mp-MedicationAgreement"/>
        </meta>
        <text>
          <status value="extensions"/>
          <div xmlns="http://www.w3.org/1999/xhtml">
            <table>
              <caption>MedicationRequest. Subject: Patient, C. XXX_Dongen. Id: MBH_300_wijzigen_correctie_MA (urn:oid:2.16.840.1.113883.2.4.3.11.999.77.16076005.1), Categorie: <span title="voorschrijven van geneesmiddel (33633005 - SNOMED CT)">voorschrijven van geneesmiddel</span>, Status: onbekend<span style="display: block;">Intentie: aanvraag</span>
                <span style="display: block;">Aangevraagd door: Healthcare professional (role), Bertine van Doorn, Huisartsen, niet nader gespecificeerd, Huisartsenpraktijk Pulver &amp; Partners</span>
              </caption>
              <tbody>
                <tr>
                  <th>Medicatie</th>
                  <td>AMANTADINE CAPSULE 100MG</td>
                </tr>
                <tr>
                  <th>Doseerinstructie</th>
                  <td>
                    <div>Timing: <div>eenmalig per dag</div>
                    </div>
                    <div>Toedieningsweg: <span title="oraal (9 - G-Standaard thesaurus subtabel 0007)">oraal</span>
                    </div>
                    <div>Dosering: doseAndRate TODO</div>
                  </td>
                </tr>
              </tbody>
            </table>
          </div>
        </text>
        <extension url="http://nictiz.nl/fhir/StructureDefinition/ext-RegistrationDateTime">
          <valueDateTime value="${DATE, T, D, -7}T09:45:00+02:00"/>
        </extension>
        <extension url="http://nictiz.nl/fhir/StructureDefinition/ext-RenderedDosageInstruction">
          <valueString value="wordt automatisch gegenereerd"/>
        </extension>
        <extension url="http://nictiz.nl/fhir/StructureDefinition/ext-TimeInterval.Period">
          <valuePeriod>
            <start value="${DATE, T, D, -7}T00:00:00+02:00"/>
          </valuePeriod>
        </extension>
        <extension url="http://nictiz.nl/fhir/StructureDefinition/ext-PharmaceuticalTreatment.Identifier">
          <valueIdentifier>
            <system value="urn:oid:2.16.840.1.113883.2.4.3.11.999.77.1.1"/>
            <value value="MBH_300_wijzigen_correctie"/>
          </valueIdentifier>
        </extension>
        <identifier>
          <system value="urn:oid:2.16.840.1.113883.2.4.3.11.999.77.16076005.1"/>
          <value value="MBH_300_wijzigen_correctie_MA"/>
        </identifier>
        <status value="unknown"/>
        <intent value="order"/>
        <category>
          <coding>
            <system value="http://snomed.info/sct"/>
            <code value="33633005"/>
            <display value="voorschrijven van geneesmiddel"/>
          </coding>
        </category>
        <medicationReference>
          <reference value="urn:uuid:68a8971d-6ac3-11ec-0000-020000000000"/>
          <type value="Medication"/>
          <display value="AMANTADINE CAPSULE 100MG"/>
        </medicationReference>
        <subject>
          <reference value="urn:uuid:d0c78ff2-6adc-11ec-0000-020000000000"/>
          <type value="Patient"/>
          <display value="Patient, C. XXX_Dongen"/>
        </subject>
        <requester>
          <reference value="urn:uuid:4560482e-6aec-11ec-0000-020000000000"/>
          <type value="PractitionerRole"/>
          <display value="Healthcare professional (role), Bertine van Doorn, Huisartsen, niet nader gespecificeerd, Huisartsenpraktijk Pulver &amp; Partners"/>
        </requester>
        <dosageInstruction>
          <timing>
            <repeat>
              <frequency value="1"/>
              <period value="1"/>
              <periodUnit value="d"/>
            </repeat>
          </timing>
          <route>
            <coding>
              <system value="urn:oid:2.16.840.1.113883.2.4.4.9"/>
              <code value="9"/>
              <display value="oraal"/>
            </coding>
          </route>
          <doseAndRate>
            <doseQuantity>
              <extension url="http://hl7.org/fhir/StructureDefinition/iso21090-PQ-translation">
                <valueQuantity>
                  <value value="11"/>
                  <unit value="stuk"/>
                  <system value="urn:oid:2.16.840.1.113883.2.4.4.1.900.2"/>
                  <code value="245"/>
                </valueQuantity>
              </extension>
              <value value="11"/>
              <unit value="stuk"/>
              <system value="http://unitsofmeasure.org"/>
              <code value="1"/>
            </doseQuantity>
          </doseAndRate>
        </dosageInstruction>
      </MedicationRequest>
    </resource>
    <request>
      <method value="POST"/>
      <url value="MedicationRequest"/>
    </request>
  </entry>
  <entry>
    <fullUrl value="urn:uuid:ebb38a6b-6a9a-11ec-0000-020000000000"/>
    <resource>
      <MedicationRequest>
        <meta>
          <profile value="http://nictiz.nl/fhir/StructureDefinition/mp-MedicationAgreement"/>
        </meta>
        <text>
          <status value="extensions"/>
          <div xmlns="http://www.w3.org/1999/xhtml">
            <table>
              <caption>MedicationRequest. Subject: Patient, C. XXX_Dongen. Id: MBH_300_wijzigen_correctie_MA_stopMA (urn:oid:2.16.840.1.113883.2.4.3.11.999.77.16076005.1), Categorie: <span title="voorschrijven van geneesmiddel (33633005 - SNOMED CT)">voorschrijven van geneesmiddel</span>, Status: onbekend<span style="display: block;">Intentie: aanvraag</span>
                <span style="display: block;">Aangevraagd door: Healthcare professional (role), Bertine van Doorn, Huisartsen, niet nader gespecificeerd, Huisartsenpraktijk Pulver &amp; Partners</span>
              </caption>
              <tbody>
                <tr>
                  <th>Medicatie</th>
                  <td>AMANTADINE CAPSULE 100MG</td>
                </tr>
                <tr>
                  <th>Reden</th>
                  <td>
                    <span title="foutieve registratie van medicatie (159691000146109 - SNOMED CT)">foutieve registratie van medicatie</span>
                  </td>
                </tr>
                <tr>
                  <th>Doseerinstructie</th>
                  <td>
                    <div>Timing: <div>eenmalig per dag</div>
                    </div>
                    <div>Toedieningsweg: <span title="Oraal (9 - G-Standaard thesaurus subtabel 0007)">Oraal</span>
                    </div>
                    <div>Dosering: doseAndRate TODO</div>
                  </td>
                </tr>
              </tbody>
            </table>
          </div>
        </text>
        <extension url="http://nictiz.nl/fhir/StructureDefinition/ext-RegistrationDateTime">
          <valueDateTime value="${DATE, T, D, -7}T10:58:00+02:00"/>
        </extension>
        <extension url="http://nictiz.nl/fhir/StructureDefinition/ext-RenderedDosageInstruction">
          <valueString value="wordt automatisch gegenereerd"/>
        </extension>
        <extension url="http://nictiz.nl/fhir/StructureDefinition/ext-TimeInterval.Period">
          <valuePeriod>
            <start value="${DATE, T, D, -7}T00:00:00+02:00"/>
            <end value="${DATE, T, D, -7}T11:00:00+02:00"/>
          </valuePeriod>
        </extension>
        <extension url="http://nictiz.nl/fhir/StructureDefinition/ext-PharmaceuticalTreatment.Identifier">
          <valueIdentifier>
            <system value="urn:oid:2.16.840.1.113883.2.4.3.11.999.77.1.1"/>
            <value value="MBH_300_wijzigen_correctie"/>
          </valueIdentifier>
        </extension>
        <modifierExtension url="http://nictiz.nl/fhir/StructureDefinition/ext-StopType">
          <valueCodeableConcept>
            <coding>
              <system value="http://snomed.info/sct"/>
              <code value="410546004"/>
              <display value="stopgezet"/>
            </coding>
          </valueCodeableConcept>
        </modifierExtension>
        <identifier>
          <system value="urn:oid:2.16.840.1.113883.2.4.3.11.999.77.16076005.1"/>
          <value value="MBH_300_wijzigen_correctie_MA_stopMA"/>
        </identifier>
        <status value="unknown"/>
        <intent value="order"/>
        <category>
          <coding>
            <system value="http://snomed.info/sct"/>
            <code value="33633005"/>
            <display value="voorschrijven van geneesmiddel"/>
          </coding>
        </category>
        <medicationReference>
          <reference value="urn:uuid:68a8971d-6ac3-11ec-0000-020000000000"/>
          <type value="Medication"/>
          <display value="AMANTADINE CAPSULE 100MG"/>
        </medicationReference>
        <subject>
          <reference value="urn:uuid:d0c78ff2-6adc-11ec-0000-020000000000"/>
          <type value="Patient"/>
          <display value="Patient, C. XXX_Dongen"/>
        </subject>
        <requester>
          <reference value="urn:uuid:4560482e-6aec-11ec-0000-020000000000"/>
          <type value="PractitionerRole"/>
          <display value="Healthcare professional (role), Bertine van Doorn, Huisartsen, niet nader gespecificeerd, Huisartsenpraktijk Pulver &amp; Partners"/>
        </requester>
        <reasonCode>
          <coding>
            <system value="http://snomed.info/sct"/>
            <code value="159691000146109"/>
            <display value="foutieve registratie van medicatie"/>
          </coding>
        </reasonCode>
        <dosageInstruction>
          <timing>
            <repeat>
              <frequency value="1"/>
              <period value="1"/>
              <periodUnit value="d"/>
            </repeat>
          </timing>
          <route>
            <coding>
              <system value="urn:oid:2.16.840.1.113883.2.4.4.9"/>
              <code value="9"/>
              <display value="Oraal"/>
            </coding>
          </route>
          <doseAndRate>
            <doseQuantity>
              <extension url="http://hl7.org/fhir/StructureDefinition/iso21090-PQ-translation">
                <valueQuantity>
                  <value value="11"/>
                  <unit value="stuk"/>
                  <system value="urn:oid:2.16.840.1.113883.2.4.4.1.900.2"/>
                  <code value="245"/>
                </valueQuantity>
              </extension>
              <value value="11"/>
              <unit value="stuk"/>
              <system value="http://unitsofmeasure.org"/>
              <code value="1"/>
            </doseQuantity>
          </doseAndRate>
        </dosageInstruction>
        <priorPrescription>
          <type value="MedicationRequest"/>
          <identifier>
            <system value="urn:oid:2.16.840.1.113883.2.4.3.11.999.77.16076005.1"/>
            <value value="MBH_300_wijzigen_correctie_MA"/>
          </identifier>
          <display value="relatie naar medicatieafspraak: MBH_300_wijzigen_correctie_MA || 2.16.840.1.113883.2.4.3.11.999.77.16076005.1"/>
        </priorPrescription>
      </MedicationRequest>
    </resource>
    <request>
      <method value="POST"/>
      <url value="MedicationRequest"/>
    </request>
  </entry>
  <entry>
    <fullUrl value="urn:uuid:d380255d-6b68-11ec-0000-020000000000"/>
    <resource>
      <MedicationRequest>
        <meta>
          <profile value="http://nictiz.nl/fhir/StructureDefinition/mp-MedicationAgreement"/>
        </meta>
        <text>
          <status value="extensions"/>
          <div xmlns="http://www.w3.org/1999/xhtml">
            <table>
              <caption>MedicationRequest. Subject: Patient, C. XXX_Dongen. Id: MBH_300_wijzigen_correctie_MA_correctieMA (urn:oid:2.16.840.1.113883.2.4.3.11.999.77.16076005.1), Categorie: <span title="voorschrijven van geneesmiddel (33633005 - SNOMED CT)">voorschrijven van geneesmiddel</span>, Status: onbekend<span style="display: block;">Intentie: aanvraag</span>
                <span style="display: block;">Aangevraagd door: Healthcare professional (role), Bertine van Doorn, Huisartsen, niet nader gespecificeerd, Huisartsenpraktijk Pulver &amp; Partners</span>
              </caption>
              <tbody>
                <tr>
                  <th>Medicatie</th>
                  <td>AMANTADINE CAPSULE 100MG</td>
                </tr>
                <tr>
                  <th>Doseerinstructie</th>
                  <td>
                    <div>Timing: <div>eenmalig per dag</div>
                    </div>
                    <div>Toedieningsweg: <span title="Oraal (9 - G-Standaard thesaurus subtabel 0007)">Oraal</span>
                    </div>
                    <div>Dosering: doseAndRate TODO</div>
                  </td>
                </tr>
              </tbody>
            </table>
          </div>
        </text>
        <extension url="http://nictiz.nl/fhir/StructureDefinition/ext-RegistrationDateTime">
          <valueDateTime value="${DATE, T, D, -7}T10:58:00+02:00"/>
        </extension>
        <extension url="http://nictiz.nl/fhir/StructureDefinition/ext-RenderedDosageInstruction">
          <valueString value="wordt automatisch gegenereerd"/>
        </extension>
        <extension url="http://nictiz.nl/fhir/StructureDefinition/ext-TimeInterval.Period">
          <valuePeriod>
            <start value="${DATE, T, D, -7}T11:01:00+02:00"/>
            <end value="${DATE, T, D, +1}T00:00:00+02:00"/>
          </valuePeriod>
        </extension>
        <extension url="http://nictiz.nl/fhir/StructureDefinition/ext-PharmaceuticalTreatment.Identifier">
          <valueIdentifier>
            <system value="urn:oid:2.16.840.1.113883.2.4.3.11.999.77.1.1"/>
            <value value="MBH_300_wijzigen_correctie"/>
          </valueIdentifier>
        </extension>
        <identifier>
          <system value="urn:oid:2.16.840.1.113883.2.4.3.11.999.77.16076005.1"/>
          <value value="MBH_300_wijzigen_correctie_MA_correctieMA"/>
        </identifier>
        <status value="unknown"/>
        <intent value="order"/>
        <category>
          <coding>
            <system value="http://snomed.info/sct"/>
            <code value="33633005"/>
            <display value="voorschrijven van geneesmiddel"/>
          </coding>
        </category>
        <medicationReference>
          <reference value="urn:uuid:68a8971d-6ac3-11ec-0000-020000000000"/>
          <type value="Medication"/>
          <display value="AMANTADINE CAPSULE 100MG"/>
        </medicationReference>
        <subject>
          <reference value="urn:uuid:d0c78ff2-6adc-11ec-0000-020000000000"/>
          <type value="Patient"/>
          <display value="Patient, C. XXX_Dongen"/>
        </subject>
        <requester>
          <reference value="urn:uuid:4560482e-6aec-11ec-0000-020000000000"/>
          <type value="PractitionerRole"/>
          <display value="Healthcare professional (role), Bertine van Doorn, Huisartsen, niet nader gespecificeerd, Huisartsenpraktijk Pulver &amp; Partners"/>
        </requester>
        <dosageInstruction>
          <timing>
            <repeat>
              <frequency value="1"/>
              <period value="1"/>
              <periodUnit value="d"/>
            </repeat>
          </timing>
          <route>
            <coding>
              <system value="urn:oid:2.16.840.1.113883.2.4.4.9"/>
              <code value="9"/>
              <display value="Oraal"/>
            </coding>
          </route>
          <doseAndRate>
            <doseQuantity>
              <extension url="http://hl7.org/fhir/StructureDefinition/iso21090-PQ-translation">
                <valueQuantity>
                  <value value="1"/>
                  <unit value="stuk"/>
                  <system value="urn:oid:2.16.840.1.113883.2.4.4.1.900.2"/>
                  <code value="245"/>
                </valueQuantity>
              </extension>
              <value value="1"/>
              <unit value="stuk"/>
              <system value="http://unitsofmeasure.org"/>
              <code value="1"/>
            </doseQuantity>
          </doseAndRate>
        </dosageInstruction>
        <priorPrescription>
          <type value="MedicationRequest"/>
          <identifier>
            <system value="urn:oid:2.16.840.1.113883.2.4.3.11.999.77.16076005.1"/>
            <value value="MBH_300_wijzigen_correctie_MA"/>
          </identifier>
          <display value="relatie naar medicatieafspraak: MBH_300_wijzigen_correctie_MA || 2.16.840.1.113883.2.4.3.11.999.77.16076005.1"/>
        </priorPrescription>
      </MedicationRequest>
    </resource>
    <request>
      <method value="POST"/>
      <url value="MedicationRequest"/>
    </request>
  </entry>
  <entry>
    <fullUrl value="urn:uuid:8907fb3e-6b5a-11ec-0000-020000000000"/>
    <resource>
      <MedicationRequest>
        <meta>
          <profile value="http://nictiz.nl/fhir/StructureDefinition/mp-MedicationAgreement"/>
        </meta>
        <text>
          <status value="extensions"/>
          <div xmlns="http://www.w3.org/1999/xhtml">
            <table>
              <caption>MedicationRequest. Subject: Patient, C. XXX_Dongen. Id: MBH_300_CorrectieOpToediening_MA (urn:oid:2.16.840.1.113883.2.4.3.11.999.77.16076005.1), Categorie: <span title="voorschrijven van geneesmiddel (33633005 - SNOMED CT)">voorschrijven van geneesmiddel</span>, Status: onbekend<span style="display: block;">Intentie: aanvraag</span>
                <span style="display: block;">Aangevraagd door: Healthcare professional (role), Bertine van Doorn, Huisartsen, niet nader gespecificeerd, Huisartsenpraktijk Pulver &amp; Partners</span>
              </caption>
              <tbody>
                <tr>
                  <th>Medicatie</th>
                  <td>PANTOPRAZOL 40MG TABLET MSR</td>
                </tr>
                <tr>
                  <th>Doseerinstructie</th>
                  <td>
                    <div>Timing: <div>07:45:00</div>
                    </div>
                    <div>Toedieningsweg: <span title="Oraal (9 - G-Standaard thesaurus subtabel 0007)">Oraal</span>
                    </div>
                    <div>Dosering: doseAndRate TODO</div>
                  </td>
                </tr>
              </tbody>
            </table>
          </div>
        </text>
        <extension url="http://nictiz.nl/fhir/StructureDefinition/ext-RegistrationDateTime">
          <valueDateTime value="${DATE, T, D, -4}T07:45:00+02:00"/>
        </extension>
        <extension url="http://nictiz.nl/fhir/StructureDefinition/ext-RenderedDosageInstruction">
          <valueString value="Wordt gegenereerd"/>
        </extension>
        <extension url="http://nictiz.nl/fhir/StructureDefinition/ext-TimeInterval.Period">
          <valuePeriod>
            <start value="${DATE, T, D, -3}T07:45:00+02:00"/>
          </valuePeriod>
        </extension>
        <extension url="http://nictiz.nl/fhir/StructureDefinition/ext-PharmaceuticalTreatment.Identifier">
          <valueIdentifier>
            <system value="urn:oid:2.16.840.1.113883.2.4.3.11.999.77.1.1"/>
            <value value="MBH_300_CorrectieOpToediening"/>
          </valueIdentifier>
        </extension>
        <identifier>
          <system value="urn:oid:2.16.840.1.113883.2.4.3.11.999.77.16076005.1"/>
          <value value="MBH_300_CorrectieOpToediening_MA"/>
        </identifier>
        <status value="unknown"/>
        <intent value="order"/>
        <category>
          <coding>
            <system value="http://snomed.info/sct"/>
            <code value="33633005"/>
            <display value="voorschrijven van geneesmiddel"/>
          </coding>
        </category>
        <medicationReference>
          <reference value="urn:uuid:7d6dcf1d-6b74-11ec-0000-020000000000"/>
          <type value="Medication"/>
          <display value="PANTOPRAZOL 40MG TABLET MSR"/>
        </medicationReference>
        <subject>
          <reference value="urn:uuid:d0c78ff2-6adc-11ec-0000-020000000000"/>
          <type value="Patient"/>
          <display value="Patient, C. XXX_Dongen"/>
        </subject>
        <requester>
          <reference value="urn:uuid:4560482e-6aec-11ec-0000-020000000000"/>
          <type value="PractitionerRole"/>
          <display value="Healthcare professional (role), Bertine van Doorn, Huisartsen, niet nader gespecificeerd, Huisartsenpraktijk Pulver &amp; Partners"/>
        </requester>
        <dosageInstruction>
          <timing>
            <repeat>
              <timeOfDay value="07:45:00"/>
            </repeat>
          </timing>
          <route>
            <coding>
              <system value="urn:oid:2.16.840.1.113883.2.4.4.9"/>
              <code value="9"/>
              <display value="Oraal"/>
            </coding>
          </route>
          <doseAndRate>
            <doseQuantity>
              <extension url="http://hl7.org/fhir/StructureDefinition/iso21090-PQ-translation">
                <valueQuantity>
                  <value value="1"/>
                  <unit value="Stuk"/>
                  <system value="urn:oid:2.16.840.1.113883.2.4.4.1.900.2"/>
                  <code value="245"/>
                </valueQuantity>
              </extension>
              <value value="1"/>
              <unit value="Stuk"/>
              <system value="http://unitsofmeasure.org"/>
              <code value="1"/>
            </doseQuantity>
          </doseAndRate>
        </dosageInstruction>
      </MedicationRequest>
    </resource>
    <request>
      <method value="POST"/>
      <url value="MedicationRequest"/>
    </request>
  </entry>
  <entry>
    <fullUrl value="urn:uuid:d0c78ff2-6adc-11ec-0000-020000000000"/>
    <resource>
      <Patient>
        <meta>
          <profile value="http://nictiz.nl/fhir/StructureDefinition/nl-core-Patient"/>
        </meta>
        <text>
          <status value="extensions"/>
          <div xmlns="http://www.w3.org/1999/xhtml">
            <div>Id 999900493 (BSN), <span title="Naamsamenstelling: Eigennaam">C. XXX_Dongen</span>, Vrouw, 23 oktober 1963</div>
          </div>
        </text>
        <identifier>
          <system value="http://fhir.nl/fhir/NamingSystem/bsn"/>
          <value value="999900493"/>
        </identifier>
        <name>
          <extension url="http://hl7.org/fhir/StructureDefinition/humanname-assembly-order">
            <valueCode value="NL1"/>
          </extension>
          <use value="official"/>
          <text value="C. XXX_Dongen"/>
          <family value="XXX_Dongen">
            <extension url="http://hl7.org/fhir/StructureDefinition/humanname-own-name">
              <valueString value="XXX_Dongen"/>
            </extension>
          </family>
          <given value="C.">
            <extension url="http://hl7.org/fhir/StructureDefinition/iso21090-EN-qualifier">
              <valueCode value="IN"/>
            </extension>
          </given>
        </name>
        <gender value="female">
          <extension url="http://nictiz.nl/fhir/StructureDefinition/ext-CodeSpecification">
            <valueCodeableConcept>
              <coding>
                <system value="http://terminology.hl7.org/CodeSystem/v3-AdministrativeGender"/>
                <code value="F"/>
                <display value="Vrouw"/>
              </coding>
            </valueCodeableConcept>
          </extension>
        </gender>
        <birthDate value="1963-10-23"/>
      </Patient>
    </resource>
    <request>
      <method value="POST"/>
      <url value="Patient"/>
    </request>
  </entry>
  <entry>
    <fullUrl value="urn:uuid:4560482e-6aec-11ec-0000-020000000000"/>
    <resource>
      <PractitionerRole>
        <meta>
          <profile value="http://nictiz.nl/fhir/StructureDefinition/nl-core-HealthProfessional-PractitionerRole"/>
        </meta>
        <text>
          <status value="extensions"/>
          <div xmlns="http://www.w3.org/1999/xhtml">
            <table>
              <caption>Zorgverlenerrol. </caption>
              <tbody>
                <tr>
                  <th>Zorgverlener</th>
                  <td>
                    <div>Healthcare professional (person), Bertine van Doorn</div>
                    <div>Healthcare provider (organization), Huisartsenpraktijk Pulver &amp; Partners</div>
                  </td>
                </tr>
                <tr>
                  <th>Specialisme</th>
                  <td>
                    <span title="Huisartsen, niet nader gespecificeerd (0100 - AGB-medisch specialisme)">Huisartsen, niet nader gespecificeerd</span>
                  </td>
                </tr>
              </tbody>
            </table>
          </div>
        </text>
        <practitioner>
          <reference value="urn:uuid:a57e4824-6aa3-11ec-0000-020000000000"/>
          <type value="Practitioner"/>
          <display value="Healthcare professional (person), Bertine van Doorn"/>
        </practitioner>
        <organization>
          <reference value="urn:uuid:7fa869d8-6b44-11ec-0000-020000000000"/>
          <type value="Organization"/>
          <display value="Healthcare provider (organization), Huisartsenpraktijk Pulver &amp; Partners"/>
        </organization>
        <specialty>
          <coding>
            <system value="urn:oid:2.16.840.1.113883.2.4.6.7"/>
            <version value="2020-10-23T00:00:00"/>
            <code value="0100"/>
            <display value="Huisartsen, niet nader gespecificeerd"/>
          </coding>
        </specialty>
      </PractitionerRole>
    </resource>
    <request>
      <method value="POST"/>
      <url value="PractitionerRole"/>
    </request>
  </entry>
  <entry>
    <fullUrl value="urn:uuid:a57e4824-6aa3-11ec-0000-020000000000"/>
    <resource>
      <Practitioner>
        <meta>
          <profile value="http://nictiz.nl/fhir/StructureDefinition/nl-core-HealthProfessional-Practitioner"/>
        </meta>
        <text>
          <status value="extensions"/>
          <div xmlns="http://www.w3.org/1999/xhtml">
            <div>Id 000001112 (UZI-NR-PERS), Bertine van Doorn</div>
          </div>
        </text>
        <identifier>
          <system value="http://fhir.nl/fhir/NamingSystem/uzi-nr-pers"/>
          <value value="000001112"/>
        </identifier>
        <name>
          <use value="official"/>
          <text value="Bertine van Doorn"/>
          <family value="van Doorn">
            <extension url="http://hl7.org/fhir/StructureDefinition/humanname-own-prefix">
              <valueString value="van"/>
            </extension>
            <extension url="http://hl7.org/fhir/StructureDefinition/humanname-own-name">
              <valueString value="Doorn"/>
            </extension>
          </family>
          <given value="Bertine">
            <extension url="http://hl7.org/fhir/StructureDefinition/iso21090-EN-qualifier">
              <valueCode value="BR"/>
            </extension>
          </given>
        </name>
      </Practitioner>
    </resource>
    <request>
      <method value="POST"/>
      <url value="Practitioner"/>
    </request>
  </entry>
  <entry>
    <fullUrl value="urn:uuid:2df71558-6b6c-11ec-0000-020000000000"/>
    <resource>
      <PractitionerRole>
        <meta>
          <profile value="http://nictiz.nl/fhir/StructureDefinition/nl-core-HealthProfessional-PractitionerRole"/>
        </meta>
        <text>
          <status value="extensions"/>
          <div xmlns="http://www.w3.org/1999/xhtml">
            <table>
              <caption>Zorgverlenerrol. </caption>
              <tbody>
                <tr>
                  <th>Zorgverlener</th>
                  <td>
                    <div>Healthcare professional (person), Jan van Harten</div>
                    <div>Healthcare provider (organization), Ziekenhuis het Gele Hart</div>
                  </td>
                </tr>
                <tr>
                  <th>Specialisme</th>
                  <td>
                    <span title="Medisch specialisten, chirurgie (0303 - AGB-medisch specialisme)">Medisch specialisten, chirurgie</span>
                  </td>
                </tr>
              </tbody>
            </table>
          </div>
        </text>
        <practitioner>
          <reference value="urn:uuid:9eb0d42e-6b29-11ec-0000-020000000000"/>
          <type value="Practitioner"/>
          <display value="Healthcare professional (person), Jan van Harten"/>
        </practitioner>
        <organization>
          <reference value="urn:uuid:f07009d8-6b48-11ec-0000-020000000000"/>
          <type value="Organization"/>
          <display value="Healthcare provider (organization), Ziekenhuis het Gele Hart"/>
        </organization>
        <specialty>
          <coding>
            <system value="urn:oid:2.16.840.1.113883.2.4.6.7"/>
            <version value="2020-10-23T00:00:00"/>
            <code value="0303"/>
            <display value="Medisch specialisten, chirurgie"/>
          </coding>
        </specialty>
      </PractitionerRole>
    </resource>
    <request>
      <method value="POST"/>
      <url value="PractitionerRole"/>
    </request>
  </entry>
  <entry>
    <fullUrl value="urn:uuid:9eb0d42e-6b29-11ec-0000-020000000000"/>
    <resource>
      <Practitioner>
        <meta>
          <profile value="http://nictiz.nl/fhir/StructureDefinition/nl-core-HealthProfessional-Practitioner"/>
        </meta>
        <text>
          <status value="extensions"/>
          <div xmlns="http://www.w3.org/1999/xhtml">
            <div>Id 000002222 (UZI-NR-PERS), Jan van Harten</div>
          </div>
        </text>
        <identifier>
          <system value="http://fhir.nl/fhir/NamingSystem/uzi-nr-pers"/>
          <value value="000002222"/>
        </identifier>
        <name>
          <use value="official"/>
          <text value="Jan van Harten"/>
          <family value="van Harten">
            <extension url="http://hl7.org/fhir/StructureDefinition/humanname-own-prefix">
              <valueString value="van"/>
            </extension>
            <extension url="http://hl7.org/fhir/StructureDefinition/humanname-own-name">
              <valueString value="Harten"/>
            </extension>
          </family>
          <given value="Jan">
            <extension url="http://hl7.org/fhir/StructureDefinition/iso21090-EN-qualifier">
              <valueCode value="BR"/>
            </extension>
          </given>
        </name>
      </Practitioner>
    </resource>
    <request>
      <method value="POST"/>
      <url value="Practitioner"/>
    </request>
  </entry>
  <entry>
    <fullUrl value="urn:uuid:7fa869d8-6b44-11ec-0000-020000000000"/>
    <resource>
      <Organization>
        <meta>
          <profile value="http://nictiz.nl/fhir/StructureDefinition/nl-core-HealthcareProvider-Organization"/>
        </meta>
        <text>
          <status value="extensions"/>
          <div xmlns="http://www.w3.org/1999/xhtml">
            <table>
              <caption>Organisatie. Id: 00001111 (URA)</caption>
              <tbody>
                <tr>
                  <th>Naam</th>
                  <td>Huisartsenpraktijk Pulver &amp; Partners</td>
                </tr>
                <tr>
                  <th>Adres</th>
                  <td>Dorpsstraat 1, 1234AA Ons Dorp (Werk)</td>
                </tr>
              </tbody>
            </table>
          </div>
        </text>
        <identifier>
          <system value="http://fhir.nl/fhir/NamingSystem/ura"/>
          <value value="00001111"/>
        </identifier>
        <name value="Huisartsenpraktijk Pulver &amp; Partners"/>
        <address>
          <extension url="http://nictiz.nl/fhir/StructureDefinition/ext-AddressInformation.AddressType">
            <valueCodeableConcept>
              <coding>
                <system value="http://terminology.hl7.org/CodeSystem/v3-AddressUse"/>
                <code value="WP"/>
                <display value="Werkadres"/>
              </coding>
            </valueCodeableConcept>
          </extension>
          <use value="work"/>
          <line value="Dorpsstraat 1">
            <extension url="http://hl7.org/fhir/StructureDefinition/iso21090-ADXP-streetName">
              <valueString value="Dorpsstraat"/>
            </extension>
            <extension url="http://hl7.org/fhir/StructureDefinition/iso21090-ADXP-houseNumber">
              <valueString value="1"/>
            </extension>
          </line>
          <city value="Ons Dorp"/>
          <postalCode value="1234AA"/>
        </address>
      </Organization>
    </resource>
    <request>
      <method value="POST"/>
      <url value="Organization"/>
    </request>
  </entry>
  <entry>
    <fullUrl value="urn:uuid:f07009d8-6b48-11ec-0000-020000000000"/>
    <resource>
      <Organization>
        <meta>
          <profile value="http://nictiz.nl/fhir/StructureDefinition/nl-core-HealthcareProvider-Organization"/>
        </meta>
        <text>
          <status value="extensions"/>
          <div xmlns="http://www.w3.org/1999/xhtml">
            <table>
              <caption>Organisatie. Id: 00004444 (URA)</caption>
              <tbody>
                <tr>
                  <th>Naam</th>
                  <td>Ziekenhuis het Gele Hart</td>
                </tr>
                <tr>
                  <th>Type</th>
                  <td>
                    <span title="Ziekenhuis (V4 - organization-type)">Ziekenhuis</span>
                  </td>
                </tr>
                <tr>
                  <th>Adres</th>
                  <td>Groenestraat 1, 1200AA Hartstad (Werk)</td>
                </tr>
              </tbody>
            </table>
          </div>
        </text>
        <identifier>
          <system value="http://fhir.nl/fhir/NamingSystem/ura"/>
          <value value="00004444"/>
        </identifier>
        <type>
          <coding>
            <system value="http://nictiz.nl/fhir/NamingSystem/organization-type"/>
            <code value="V4"/>
            <display value="Ziekenhuis"/>
          </coding>
        </type>
        <name value="Ziekenhuis het Gele Hart"/>
        <address>
          <extension url="http://nictiz.nl/fhir/StructureDefinition/ext-AddressInformation.AddressType">
            <valueCodeableConcept>
              <coding>
                <system value="http://terminology.hl7.org/CodeSystem/v3-AddressUse"/>
                <code value="WP"/>
                <display value="Werkadres"/>
              </coding>
            </valueCodeableConcept>
          </extension>
          <use value="work"/>
          <line value="Groenestraat 1">
            <extension url="http://hl7.org/fhir/StructureDefinition/iso21090-ADXP-streetName">
              <valueString value="Groenestraat"/>
            </extension>
            <extension url="http://hl7.org/fhir/StructureDefinition/iso21090-ADXP-houseNumber">
              <valueString value="1"/>
            </extension>
          </line>
          <city value="Hartstad"/>
          <postalCode value="1200AA"/>
        </address>
      </Organization>
    </resource>
    <request>
      <method value="POST"/>
      <url value="Organization"/>
    </request>
  </entry>
  <entry>
    <fullUrl value="urn:uuid:a07ec504-6ac4-11ec-0000-020000000000"/>
    <resource>
      <Medication>
        <meta>
          <profile value="http://nictiz.nl/fhir/StructureDefinition/mp-PharmaceuticalProduct"/>
        </meta>
        <text>
          <status value="extensions"/>
          <div xmlns="http://www.w3.org/1999/xhtml">
            <table>
              <tbody>
                <tr>
                  <th>Code</th>
                  <td>
                    <span title="Acetylsalicylzuur tabletmsr 100mg (49484 - G-Standaard PRK)">Acetylsalicylzuur tabletmsr 100mg</span>
                  </td>
                </tr>
              </tbody>
            </table>
          </div>
        </text>
        <code>
          <coding>
            <system value="urn:oid:2.16.840.1.113883.2.4.4.10"/>
            <code value="49484"/>
            <display value="Acetylsalicylzuur tabletmsr 100mg"/>
            <userSelected value="true"/>
          </coding>
          <coding>
            <system value="urn:oid:2.16.840.1.113883.2.4.4.1"/>
            <code value="103039"/>
            <display value="Acetylsalicylzuur tabletmsr 100mg"/>
          </coding>
          <text value="Acetylsalicylzuur tabletmsr 100mg"/>
        </code>
      </Medication>
    </resource>
    <request>
      <method value="POST"/>
      <url value="Medication"/>
    </request>
  </entry>
  <entry>
    <fullUrl value="urn:uuid:68a8971d-6ac3-11ec-0000-020000000000"/>
    <resource>
      <Medication>
        <meta>
          <profile value="http://nictiz.nl/fhir/StructureDefinition/mp-PharmaceuticalProduct"/>
        </meta>
        <text>
          <status value="extensions"/>
          <div xmlns="http://www.w3.org/1999/xhtml">
            <table>
              <tbody>
                <tr>
                  <th>Code</th>
                  <td>
                    <span title="AMANTADINE CAPSULE 100MG (485 - G-Standaard PRK)">AMANTADINE CAPSULE 100MG</span>
                  </td>
                </tr>
              </tbody>
            </table>
          </div>
        </text>
        <code>
          <coding>
            <system value="urn:oid:2.16.840.1.113883.2.4.4.10"/>
            <code value="485"/>
            <display value="AMANTADINE CAPSULE 100MG"/>
            <userSelected value="true"/>
          </coding>
          <coding>
            <system value="urn:oid:2.16.840.1.113883.2.4.4.1"/>
            <code value="1341"/>
            <display value="AMANTADINE CAPSULE 100MG"/>
          </coding>
          <text value="AMANTADINE CAPSULE 100MG"/>
        </code>
      </Medication>
    </resource>
    <request>
      <method value="POST"/>
      <url value="Medication"/>
    </request>
  </entry>
  <entry>
    <fullUrl value="urn:uuid:1f769be9-6a9e-11ec-0000-020000000000"/>
    <resource>
      <Medication>
        <meta>
          <profile value="http://nictiz.nl/fhir/StructureDefinition/mp-PharmaceuticalProduct"/>
        </meta>
        <text>
          <status value="extensions"/>
          <div xmlns="http://www.w3.org/1999/xhtml">
            <table>
              <tbody>
                <tr>
                  <th>Code</th>
                  <td>
                    <span title="AMLODIPINE TABLET 5MG (123315 - G-Standaard PRK)">AMLODIPINE TABLET 5MG</span>
                  </td>
                </tr>
              </tbody>
            </table>
          </div>
        </text>
        <code>
          <coding>
            <system value="urn:oid:2.16.840.1.113883.2.4.4.10"/>
            <code value="123315"/>
            <display value="AMLODIPINE TABLET 5MG"/>
            <userSelected value="true"/>
          </coding>
          <coding>
            <system value="urn:oid:2.16.840.1.113883.2.4.4.1"/>
            <code value="155616"/>
            <display value="AMLODIPINE TABLET 5MG"/>
          </coding>
          <text value="AMLODIPINE TABLET 5MG"/>
        </code>
      </Medication>
    </resource>
    <request>
      <method value="POST"/>
      <url value="Medication"/>
    </request>
  </entry>
  <entry>
    <fullUrl value="urn:uuid:86a337e9-6aaf-11ec-0000-020000000000"/>
    <resource>
      <Medication>
        <meta>
          <profile value="http://nictiz.nl/fhir/StructureDefinition/mp-PharmaceuticalProduct"/>
        </meta>
        <text>
          <status value="extensions"/>
          <div xmlns="http://www.w3.org/1999/xhtml">
            <table>
              <tbody>
                <tr>
                  <th>Code</th>
                  <td>
                    <span title="APIXABAN TABLET 5MG (105678 - G-Standaard PRK)">APIXABAN TABLET 5MG</span>
                  </td>
                </tr>
              </tbody>
            </table>
          </div>
        </text>
        <code>
          <coding>
            <system value="urn:oid:2.16.840.1.113883.2.4.4.10"/>
            <code value="105678"/>
            <display value="APIXABAN TABLET 5MG"/>
            <userSelected value="true"/>
          </coding>
          <coding>
            <system value="urn:oid:2.16.840.1.113883.2.4.4.1"/>
            <code value="141992"/>
            <display value="APIXABAN TABLET 5MG"/>
          </coding>
          <text value="APIXABAN TABLET 5MG"/>
        </code>
      </Medication>
    </resource>
    <request>
      <method value="POST"/>
      <url value="Medication"/>
    </request>
  </entry>
  <entry>
    <fullUrl value="urn:uuid:ebaaab1d-6b29-11ec-0000-020000000000"/>
    <resource>
      <Medication>
        <meta>
          <profile value="http://nictiz.nl/fhir/StructureDefinition/mp-PharmaceuticalProduct"/>
        </meta>
        <text>
          <status value="extensions"/>
          <div xmlns="http://www.w3.org/1999/xhtml">
            <table>
              <tbody>
                <tr>
                  <th>Code</th>
                  <td>
                    <span title="FENETICILLINE CAPSULE 500MG (17205 - G-Standaard PRK)">FENETICILLINE CAPSULE 500MG</span>
                  </td>
                </tr>
              </tbody>
            </table>
          </div>
        </text>
        <code>
          <coding>
            <system value="urn:oid:2.16.840.1.113883.2.4.4.10"/>
            <code value="17205"/>
            <display value="FENETICILLINE CAPSULE 500MG"/>
            <userSelected value="true"/>
          </coding>
          <coding>
            <system value="urn:oid:2.16.840.1.113883.2.4.4.1"/>
            <code value="41092"/>
            <display value="FENETICILLINE CAPSULE 500MG"/>
          </coding>
          <text value="FENETICILLINE CAPSULE 500MG"/>
        </code>
      </Medication>
    </resource>
    <request>
      <method value="POST"/>
      <url value="Medication"/>
    </request>
  </entry>
  <entry>
    <fullUrl value="urn:uuid:661c3b1d-6b30-11ec-0000-020000000000"/>
    <resource>
      <Medication>
        <meta>
          <profile value="http://nictiz.nl/fhir/StructureDefinition/mp-PharmaceuticalProduct"/>
        </meta>
        <text>
          <status value="extensions"/>
          <div xmlns="http://www.w3.org/1999/xhtml">
            <table>
              <tbody>
                <tr>
                  <th>Code</th>
                  <td>
                    <span title="FERROFUMARAAT TABLET 200MG (42293 - G-Standaard PRK)">FERROFUMARAAT TABLET 200MG</span>
                  </td>
                </tr>
              </tbody>
            </table>
          </div>
        </text>
        <code>
          <coding>
            <system value="urn:oid:2.16.840.1.113883.2.4.4.10"/>
            <code value="42293"/>
            <display value="FERROFUMARAAT TABLET 200MG"/>
            <userSelected value="true"/>
          </coding>
          <coding>
            <system value="urn:oid:2.16.840.1.113883.2.4.4.1"/>
            <code value="15342"/>
            <display value="FERROFUMARAAT TABLET 200MG"/>
          </coding>
          <text value="FERROFUMARAAT TABLET 200MG"/>
        </code>
      </Medication>
    </resource>
    <request>
      <method value="POST"/>
      <url value="Medication"/>
    </request>
  </entry>
  <entry>
    <fullUrl value="urn:uuid:097956e9-6aa6-11ec-0000-020000000000"/>
    <resource>
      <Medication>
        <meta>
          <profile value="http://nictiz.nl/fhir/StructureDefinition/mp-PharmaceuticalProduct"/>
        </meta>
        <text>
          <status value="extensions"/>
          <div xmlns="http://www.w3.org/1999/xhtml">
            <table>
              <tbody>
                <tr>
                  <th>Code</th>
                  <td>
                    <span title="FUROSEMIDE 40MG TABLET (5967 - G-Standaard PRK)">FUROSEMIDE 40MG TABLET</span>
                  </td>
                </tr>
              </tbody>
            </table>
          </div>
        </text>
        <code>
          <coding>
            <system value="urn:oid:2.16.840.1.113883.2.4.4.10"/>
            <code value="5967"/>
            <display value="FUROSEMIDE 40MG TABLET"/>
            <userSelected value="true"/>
          </coding>
          <coding>
            <system value="urn:oid:2.16.840.1.113883.2.4.4.1"/>
            <code value="16810"/>
            <display value="FUROSEMIDE 40MG TABLET"/>
          </coding>
          <text value="FUROSEMIDE 40MG TABLET"/>
        </code>
      </Medication>
    </resource>
    <request>
      <method value="POST"/>
      <url value="Medication"/>
    </request>
  </entry>
  <entry>
    <fullUrl value="urn:uuid:9c15ed1d-6af4-11ec-0000-020000000000"/>
    <resource>
      <Medication>
        <meta>
          <profile value="http://nictiz.nl/fhir/StructureDefinition/mp-PharmaceuticalProduct"/>
        </meta>
        <text>
          <status value="extensions"/>
          <div xmlns="http://www.w3.org/1999/xhtml">
            <table>
              <tbody>
                <tr>
                  <th>Code</th>
                  <td>
                    <span title="MEFLOQUINE TABLET 250MG (25410 - G-Standaard PRK)">MEFLOQUINE TABLET 250MG</span>
                  </td>
                </tr>
              </tbody>
            </table>
          </div>
        </text>
        <code>
          <coding>
            <system value="urn:oid:2.16.840.1.113883.2.4.4.10"/>
            <code value="25410"/>
            <display value="MEFLOQUINE TABLET 250MG"/>
            <userSelected value="true"/>
          </coding>
          <coding>
            <system value="urn:oid:2.16.840.1.113883.2.4.4.1"/>
            <code value="66478"/>
            <display value="MEFLOQUINE TABLET 250MG"/>
          </coding>
          <text value="MEFLOQUINE TABLET 250MG"/>
        </code>
      </Medication>
    </resource>
    <request>
      <method value="POST"/>
      <url value="Medication"/>
    </request>
  </entry>
  <entry>
    <fullUrl value="urn:uuid:7d6dcf1d-6b74-11ec-0000-020000000000"/>
    <resource>
      <Medication>
        <meta>
          <profile value="http://nictiz.nl/fhir/StructureDefinition/mp-PharmaceuticalProduct"/>
        </meta>
        <text>
          <status value="extensions"/>
          <div xmlns="http://www.w3.org/1999/xhtml">
            <table>
              <tbody>
                <tr>
                  <th>Code</th>
                  <td>
                    <span title="PANTOPRAZOL 40MG TABLET MSR (43044 - G-Standaard PRK)">PANTOPRAZOL 40MG TABLET MSR</span>
                  </td>
                </tr>
              </tbody>
            </table>
          </div>
        </text>
        <code>
          <coding>
            <system value="urn:oid:2.16.840.1.113883.2.4.4.10"/>
            <code value="43044"/>
            <display value="PANTOPRAZOL 40MG TABLET MSR"/>
            <userSelected value="true"/>
          </coding>
          <coding>
            <system value="urn:oid:2.16.840.1.113883.2.4.4.1"/>
            <code value="96938"/>
            <display value="PANTOPRAZOL 40MG TABLET MSR"/>
          </coding>
          <text value="PANTOPRAZOL 40MG TABLET MSR"/>
        </code>
      </Medication>
    </resource>
    <request>
      <method value="POST"/>
      <url value="Medication"/>
    </request>
  </entry>
  <entry>
    <fullUrl value="urn:uuid:79b3fce9-6b3b-11ec-0000-020000000000"/>
    <resource>
      <Medication>
        <meta>
          <profile value="http://nictiz.nl/fhir/StructureDefinition/mp-PharmaceuticalProduct"/>
        </meta>
        <text>
          <status value="extensions"/>
          <div xmlns="http://www.w3.org/1999/xhtml">
            <table>
              <tbody>
                <tr>
                  <th>Code</th>
                  <td>
                    <span title="PROPRANOLOL TABLET 80MG (5738 - G-Standaard PRK)">PROPRANOLOL TABLET 80MG</span>
                  </td>
                </tr>
              </tbody>
            </table>
          </div>
        </text>
        <code>
          <coding>
            <system value="urn:oid:2.16.840.1.113883.2.4.4.10"/>
            <code value="5738"/>
            <display value="PROPRANOLOL TABLET 80MG"/>
            <userSelected value="true"/>
          </coding>
          <coding>
            <system value="urn:oid:2.16.840.1.113883.2.4.4.1"/>
            <code value="16322"/>
            <display value="PROPRANOLOL TABLET 80MG"/>
          </coding>
          <text value="PROPRANOLOL TABLET 80MG"/>
        </code>
      </Medication>
    </resource>
    <request>
      <method value="POST"/>
      <url value="Medication"/>
    </request>
  </entry>
</Bundle>
