<Bundle xmlns="http://hl7.org/fhir">
  <id value="mg-mp-mg-tst-MVE-Scenarioset0-v30"/>
  <type value="transaction"/>
  <entry>
    <fullUrl value="urn:uuid:22453ba7-6b0d-11ec-0000-020000000000"/>
    <resource>
      <MedicationDispense>
        <meta>
          <profile value="http://nictiz.nl/fhir/StructureDefinition/mp-MedicationDispense"/>
        </meta>
        <text>
          <status value="extensions"/>
          <div xmlns="http://www.w3.org/1999/xhtml">
            <table>
              <caption>MedicationDispense. Subject: Patient, R. van XXX_Sonnenberg. Id: MBH_300_QA1_MVE (urn:oid:2.16.840.1.113883.2.4.3.11.999.77.373784005.1), Categorie: <span title="verstrekken van medicatie (373784005 - SNOMED CT)">verstrekken van medicatie</span>, Status: voltooid<span style="display: block;">Uitvoerende: Healthcare provider (organization), Apotheek De Gulle Gaper</span>
              </caption>
              <tbody>
                <tr>
                  <th>Gebaseerd op</th>
                  <td>relatie naar verstrekkingsverzoek met identificatie: MBH_300_QA1_VV || 2.16.840.1.113883.2.4.3.11.999.77.52711000146108.1 (Id: MBH_300_QA1_VV (urn:oid:2.16.840.1.113883.2.4.3.11.999.77.52711000146108.1))</td>
                </tr>
                <tr>
                  <th>Medicatie</th>
                  <td>IBUPROFEN PCH TABLET 600MG</td>
                </tr>
                <tr>
                  <th>Hoeveelheid</th>
                  <td>60 stuk</td>
                </tr>
                <tr>
                  <th>Datum overhandigd</th>
                  <td>${DATE, T, D, -20}T09:00:00+02:00</td>
                </tr>
              </tbody>
            </table>
          </div>
        </text>
        <extension url="http://nictiz.nl/fhir/StructureDefinition/ext-PharmaceuticalTreatment.Identifier">
          <valueIdentifier>
            <system value="urn:oid:2.16.840.1.113883.2.4.3.11.999.77.1.1"/>
            <value value="MBH_300_QA1"/>
          </valueIdentifier>
        </extension>
        <identifier>
          <system value="urn:oid:2.16.840.1.113883.2.4.3.11.999.77.373784005.1"/>
          <value value="MBH_300_QA1_MVE"/>
        </identifier>
        <status value="completed"/>
        <category>
          <coding>
            <system value="http://snomed.info/sct"/>
            <code value="373784005"/>
            <display value="verstrekken van medicatie"/>
          </coding>
        </category>
        <medicationReference>
          <reference value="urn:uuid:63ec4b04-6ab8-11ec-0000-020000000000"/>
          <type value="Medication"/>
          <display value="IBUPROFEN PCH TABLET 600MG"/>
        </medicationReference>
        <subject>
          <reference value="urn:uuid:ebdc44f8-6b2b-11ec-0000-020000000000"/>
          <type value="Patient"/>
          <display value="Patient, R. van XXX_Sonnenberg"/>
        </subject>
        <performer>
          <actor>
            <reference value="urn:uuid:10079464-6b64-11ec-0000-020000000000"/>
            <type value="Organization"/>
            <display value="Healthcare provider (organization), Apotheek De Gulle Gaper"/>
          </actor>
        </performer>
        <authorizingPrescription>
          <type value="MedicationRequest"/>
          <identifier>
            <system value="urn:oid:2.16.840.1.113883.2.4.3.11.999.77.52711000146108.1"/>
            <value value="MBH_300_QA1_VV"/>
          </identifier>
          <display value="relatie naar verstrekkingsverzoek met identificatie: MBH_300_QA1_VV || 2.16.840.1.113883.2.4.3.11.999.77.52711000146108.1"/>
        </authorizingPrescription>
        <quantity>
          <extension url="http://hl7.org/fhir/StructureDefinition/iso21090-PQ-translation">
            <valueQuantity>
              <value value="60"/>
              <unit value="stuk"/>
              <system value="urn:oid:2.16.840.1.113883.2.4.4.1.900.2"/>
              <code value="245"/>
            </valueQuantity>
          </extension>
          <value value="60"/>
          <unit value="stuk"/>
          <system value="http://unitsofmeasure.org"/>
          <code value="1"/>
        </quantity>
        <whenHandedOver value="${DATE, T, D, -20}T09:00:00+02:00"/>
      </MedicationDispense>
    </resource>
    <request>
      <method value="POST"/>
      <url value="MedicationDispense"/>
    </request>
  </entry>
  <entry>
    <fullUrl value="urn:uuid:ef1801a7-6ac5-11ec-0000-020000000000"/>
    <resource>
      <MedicationDispense>
        <meta>
          <profile value="http://nictiz.nl/fhir/StructureDefinition/mp-MedicationDispense"/>
        </meta>
        <text>
          <status value="extensions"/>
          <div xmlns="http://www.w3.org/1999/xhtml">
            <table>
              <caption>MedicationDispense. Subject: Patient, R. van XXX_Sonnenberg. Id: MBH_300_QA2_MVE (urn:oid:2.16.840.1.113883.2.4.3.11.999.77.373784005.1), Categorie: <span title="verstrekken van medicatie (373784005 - SNOMED CT)">verstrekken van medicatie</span>, Status: voltooid<span style="display: block;">Uitvoerende: Healthcare provider (organization), Apotheek De Gulle Gaper</span>
              </caption>
              <tbody>
                <tr>
                  <th>Gebaseerd op</th>
                  <td>relatie naar verstrekkingsverzoek met identificatie: MBH_300_QA2_VV || 2.16.840.1.113883.2.4.3.11.999.77.52711000146108.1 (Id: MBH_300_QA2_VV (urn:oid:2.16.840.1.113883.2.4.3.11.999.77.52711000146108.1))</td>
                </tr>
                <tr>
                  <th>Medicatie</th>
                  <td>XPRAEP SIROOP 2MG/ML</td>
                </tr>
                <tr>
                  <th>Hoeveelheid</th>
                  <td>300 milliliter</td>
                </tr>
                <tr>
                  <th>Datum overhandigd</th>
                  <td>${DATE, T, D, -100}T09:04:00+02:00</td>
                </tr>
              </tbody>
            </table>
          </div>
        </text>
        <extension url="http://nictiz.nl/fhir/StructureDefinition/ext-PharmaceuticalTreatment.Identifier">
          <valueIdentifier>
            <system value="urn:oid:2.16.840.1.113883.2.4.3.11.999.77.1.1"/>
            <value value="MBH_300_QA2"/>
          </valueIdentifier>
        </extension>
        <identifier>
          <system value="urn:oid:2.16.840.1.113883.2.4.3.11.999.77.373784005.1"/>
          <value value="MBH_300_QA2_MVE"/>
        </identifier>
        <status value="completed"/>
        <category>
          <coding>
            <system value="http://snomed.info/sct"/>
            <code value="373784005"/>
            <display value="verstrekken van medicatie"/>
          </coding>
        </category>
        <medicationReference>
          <reference value="urn:uuid:35c9591d-6ac3-11ec-0000-020000000000"/>
          <type value="Medication"/>
          <display value="XPRAEP SIROOP 2MG/ML"/>
        </medicationReference>
        <subject>
          <reference value="urn:uuid:ebdc44f8-6b2b-11ec-0000-020000000000"/>
          <type value="Patient"/>
          <display value="Patient, R. van XXX_Sonnenberg"/>
        </subject>
        <performer>
          <actor>
            <reference value="urn:uuid:10079464-6b64-11ec-0000-020000000000"/>
            <type value="Organization"/>
            <display value="Healthcare provider (organization), Apotheek De Gulle Gaper"/>
          </actor>
        </performer>
        <authorizingPrescription>
          <type value="MedicationRequest"/>
          <identifier>
            <system value="urn:oid:2.16.840.1.113883.2.4.3.11.999.77.52711000146108.1"/>
            <value value="MBH_300_QA2_VV"/>
          </identifier>
          <display value="relatie naar verstrekkingsverzoek met identificatie: MBH_300_QA2_VV || 2.16.840.1.113883.2.4.3.11.999.77.52711000146108.1"/>
        </authorizingPrescription>
        <quantity>
          <extension url="http://hl7.org/fhir/StructureDefinition/iso21090-PQ-translation">
            <valueQuantity>
              <value value="300"/>
              <unit value="milliliter"/>
              <system value="urn:oid:2.16.840.1.113883.2.4.4.1.900.2"/>
              <code value="233"/>
            </valueQuantity>
          </extension>
          <value value="300"/>
          <unit value="milliliter"/>
          <system value="http://unitsofmeasure.org"/>
          <code value="ml"/>
        </quantity>
        <whenHandedOver value="${DATE, T, D, -100}T09:04:00+02:00"/>
      </MedicationDispense>
    </resource>
    <request>
      <method value="POST"/>
      <url value="MedicationDispense"/>
    </request>
  </entry>
  <entry>
    <fullUrl value="urn:uuid:587ff1a7-6b31-11ec-0000-020000000000"/>
    <resource>
      <MedicationDispense>
        <meta>
          <profile value="http://nictiz.nl/fhir/StructureDefinition/mp-MedicationDispense"/>
        </meta>
        <text>
          <status value="extensions"/>
          <div xmlns="http://www.w3.org/1999/xhtml">
            <table>
              <caption>MedicationDispense. Subject: Patient, R. van XXX_Sonnenberg. Id: MBH_300_QA3_MVE (urn:oid:2.16.840.1.113883.2.4.3.11.999.77.373784005.1), Categorie: <span title="verstrekken van medicatie (373784005 - SNOMED CT)">verstrekken van medicatie</span>, Status: voltooid<span style="display: block;">Uitvoerende: Healthcare provider (organization), Apotheek De Gulle Gaper</span>
              </caption>
              <tbody>
                <tr>
                  <th>Gebaseerd op</th>
                  <td>relatie naar verstrekkingsverzoek met identificatie: MBH_300_QA3_VV || 2.16.840.1.113883.2.4.3.11.999.77.52711000146108.1 (Id: MBH_300_QA3_VV (urn:oid:2.16.840.1.113883.2.4.3.11.999.77.52711000146108.1))</td>
                </tr>
                <tr>
                  <th>Medicatie</th>
                  <td>NUTRIDRINK BANAANSMAAK</td>
                </tr>
                <tr>
                  <th>Hoeveelheid</th>
                  <td>4000 milliliter</td>
                </tr>
                <tr>
                  <th>Datum overhandigd</th>
                  <td>${DATE, T, D, -50}T09:10:00+02:00</td>
                </tr>
              </tbody>
            </table>
          </div>
        </text>
        <extension url="http://nictiz.nl/fhir/StructureDefinition/ext-PharmaceuticalTreatment.Identifier">
          <valueIdentifier>
            <system value="urn:oid:2.16.840.1.113883.2.4.3.11.999.77.1.1"/>
            <value value="MBH_300_QA3"/>
          </valueIdentifier>
        </extension>
        <identifier>
          <system value="urn:oid:2.16.840.1.113883.2.4.3.11.999.77.373784005.1"/>
          <value value="MBH_300_QA3_MVE"/>
        </identifier>
        <status value="completed"/>
        <category>
          <coding>
            <system value="http://snomed.info/sct"/>
            <code value="373784005"/>
            <display value="verstrekken van medicatie"/>
          </coding>
        </category>
        <medicationReference>
          <reference value="urn:uuid:584ac0e9-6b34-11ec-0000-020000000000"/>
          <type value="Medication"/>
          <display value="NUTRIDRINK BANAANSMAAK"/>
        </medicationReference>
        <subject>
          <reference value="urn:uuid:ebdc44f8-6b2b-11ec-0000-020000000000"/>
          <type value="Patient"/>
          <display value="Patient, R. van XXX_Sonnenberg"/>
        </subject>
        <performer>
          <actor>
            <reference value="urn:uuid:10079464-6b64-11ec-0000-020000000000"/>
            <type value="Organization"/>
            <display value="Healthcare provider (organization), Apotheek De Gulle Gaper"/>
          </actor>
        </performer>
        <authorizingPrescription>
          <type value="MedicationRequest"/>
          <identifier>
            <system value="urn:oid:2.16.840.1.113883.2.4.3.11.999.77.52711000146108.1"/>
            <value value="MBH_300_QA3_VV"/>
          </identifier>
          <display value="relatie naar verstrekkingsverzoek met identificatie: MBH_300_QA3_VV || 2.16.840.1.113883.2.4.3.11.999.77.52711000146108.1"/>
        </authorizingPrescription>
        <quantity>
          <extension url="http://hl7.org/fhir/StructureDefinition/iso21090-PQ-translation">
            <valueQuantity>
              <value value="4000"/>
              <unit value="milliliter"/>
              <system value="urn:oid:2.16.840.1.113883.2.4.4.1.900.2"/>
              <code value="233"/>
            </valueQuantity>
          </extension>
          <value value="4000"/>
          <unit value="milliliter"/>
          <system value="http://unitsofmeasure.org"/>
          <code value="ml"/>
        </quantity>
        <whenHandedOver value="${DATE, T, D, -50}T09:10:00+02:00"/>
      </MedicationDispense>
    </resource>
    <request>
      <method value="POST"/>
      <url value="MedicationDispense"/>
    </request>
  </entry>
  <entry>
    <fullUrl value="urn:uuid:95c373dd-6ae5-11ec-0000-020000000000"/>
    <resource>
      <MedicationDispense>
        <meta>
          <profile value="http://nictiz.nl/fhir/StructureDefinition/mp-MedicationDispense"/>
        </meta>
        <text>
          <status value="extensions"/>
          <div xmlns="http://www.w3.org/1999/xhtml">
            <table>
              <caption>MedicationDispense. Subject: Patient, R. van XXX_Sonnenberg. Id: MBH_300_QA4_MVE (urn:oid:2.16.840.1.113883.2.4.3.11.999.77.373784005.1), Categorie: <span title="verstrekken van medicatie (373784005 - SNOMED CT)">verstrekken van medicatie</span>, Status: voltooid<span style="display: block;">Uitvoerende: Healthcare provider (organization), Apotheek De Gulle Gaper</span>
              </caption>
              <tbody>
                <tr>
                  <th>Gebaseerd op</th>
                  <td>relatie naar verstrekkingsverzoek met identificatie: MBH_300_QA4_VV || 2.16.840.1.113883.2.4.3.11.999.77.52711000146108.1 (Id: MBH_300_QA4_VV (urn:oid:2.16.840.1.113883.2.4.3.11.999.77.52711000146108.1))</td>
                </tr>
                <tr>
                  <th>Medicatie</th>
                  <td>ASPIRINE TABLET 100MG</td>
                </tr>
                <tr>
                  <th>Hoeveelheid</th>
                  <td>30 stuk</td>
                </tr>
                <tr>
                  <th>Datum overhandigd</th>
                  <td>${DATE, T, D, -10}T09:12:00+02:00</td>
                </tr>
              </tbody>
            </table>
          </div>
        </text>
        <extension url="http://nictiz.nl/fhir/StructureDefinition/ext-PharmaceuticalTreatment.Identifier">
          <valueIdentifier>
            <system value="urn:oid:2.16.840.1.113883.2.4.3.11.999.77.1.1"/>
            <value value="MBH_300_QA4"/>
          </valueIdentifier>
        </extension>
        <identifier>
          <system value="urn:oid:2.16.840.1.113883.2.4.3.11.999.77.373784005.1"/>
          <value value="MBH_300_QA4_MVE"/>
        </identifier>
        <status value="completed"/>
        <category>
          <coding>
            <system value="http://snomed.info/sct"/>
            <code value="373784005"/>
            <display value="verstrekken van medicatie"/>
          </coding>
        </category>
        <medicationReference>
          <reference value="urn:uuid:59ba831d-6b1f-11ec-0000-020000000000"/>
          <type value="Medication"/>
          <display value="ASPIRINE TABLET 100MG"/>
        </medicationReference>
        <subject>
          <reference value="urn:uuid:ebdc44f8-6b2b-11ec-0000-020000000000"/>
          <type value="Patient"/>
          <display value="Patient, R. van XXX_Sonnenberg"/>
        </subject>
        <performer>
          <actor>
            <reference value="urn:uuid:10079464-6b64-11ec-0000-020000000000"/>
            <type value="Organization"/>
            <display value="Healthcare provider (organization), Apotheek De Gulle Gaper"/>
          </actor>
        </performer>
        <authorizingPrescription>
          <type value="MedicationRequest"/>
          <identifier>
            <system value="urn:oid:2.16.840.1.113883.2.4.3.11.999.77.52711000146108.1"/>
            <value value="MBH_300_QA4_VV"/>
          </identifier>
          <display value="relatie naar verstrekkingsverzoek met identificatie: MBH_300_QA4_VV || 2.16.840.1.113883.2.4.3.11.999.77.52711000146108.1"/>
        </authorizingPrescription>
        <quantity>
          <extension url="http://hl7.org/fhir/StructureDefinition/iso21090-PQ-translation">
            <valueQuantity>
              <value value="30"/>
              <unit value="stuk"/>
              <system value="urn:oid:2.16.840.1.113883.2.4.4.1.900.2"/>
              <code value="245"/>
            </valueQuantity>
          </extension>
          <value value="30"/>
          <unit value="stuk"/>
          <system value="http://unitsofmeasure.org"/>
          <code value="1"/>
        </quantity>
        <whenHandedOver value="${DATE, T, D, -10}T09:12:00+02:00"/>
      </MedicationDispense>
    </resource>
    <request>
      <method value="POST"/>
      <url value="MedicationDispense"/>
    </request>
  </entry>
  <entry>
    <fullUrl value="urn:uuid:e74173dd-6b51-11ec-0000-020000000000"/>
    <resource>
      <MedicationDispense>
        <meta>
          <profile value="http://nictiz.nl/fhir/StructureDefinition/mp-MedicationDispense"/>
        </meta>
        <text>
          <status value="extensions"/>
          <div xmlns="http://www.w3.org/1999/xhtml">
            <table>
              <caption>MedicationDispense. Subject: Patient, R. van XXX_Sonnenberg. Id: MBH_300_QA5_MVE (urn:oid:2.16.840.1.113883.2.4.3.11.999.77.373784005.1), Categorie: <span title="verstrekken van medicatie (373784005 - SNOMED CT)">verstrekken van medicatie</span>, Status: voltooid<span style="display: block;">Uitvoerende: Healthcare provider (organization), Apotheek De Gulle Gaper</span>
              </caption>
              <tbody>
                <tr>
                  <th>Gebaseerd op</th>
                  <td>relatie naar verstrekkingsverzoek met identificatie: MBH_300_QA5_VV || 2.16.840.1.113883.2.4.3.11.999.77.52711000146108.1 (Id: MBH_300_QA5_VV (urn:oid:2.16.840.1.113883.2.4.3.11.999.77.52711000146108.1))</td>
                </tr>
                <tr>
                  <th>Medicatie</th>
                  <td>PARACETAMOL SANDOZ TABLET 500MG</td>
                </tr>
                <tr>
                  <th>Hoeveelheid</th>
                  <td>56 stuk</td>
                </tr>
                <tr>
                  <th>Datum overhandigd</th>
                  <td>${DATE, T, D, -50}T09:15:00+02:00</td>
                </tr>
              </tbody>
            </table>
          </div>
        </text>
        <extension url="http://nictiz.nl/fhir/StructureDefinition/ext-PharmaceuticalTreatment.Identifier">
          <valueIdentifier>
            <system value="urn:oid:2.16.840.1.113883.2.4.3.11.999.77.1.1"/>
            <value value="MBH_300_QA5"/>
          </valueIdentifier>
        </extension>
        <identifier>
          <system value="urn:oid:2.16.840.1.113883.2.4.3.11.999.77.373784005.1"/>
          <value value="MBH_300_QA5_MVE"/>
        </identifier>
        <status value="completed"/>
        <category>
          <coding>
            <system value="http://snomed.info/sct"/>
            <code value="373784005"/>
            <display value="verstrekken van medicatie"/>
          </coding>
        </category>
        <medicationReference>
          <reference value="urn:uuid:29c3071d-6ac8-11ec-0000-020000000000"/>
          <type value="Medication"/>
          <display value="PARACETAMOL SANDOZ TABLET 500MG"/>
        </medicationReference>
        <subject>
          <reference value="urn:uuid:ebdc44f8-6b2b-11ec-0000-020000000000"/>
          <type value="Patient"/>
          <display value="Patient, R. van XXX_Sonnenberg"/>
        </subject>
        <performer>
          <actor>
            <reference value="urn:uuid:10079464-6b64-11ec-0000-020000000000"/>
            <type value="Organization"/>
            <display value="Healthcare provider (organization), Apotheek De Gulle Gaper"/>
          </actor>
        </performer>
        <authorizingPrescription>
          <type value="MedicationRequest"/>
          <identifier>
            <system value="urn:oid:2.16.840.1.113883.2.4.3.11.999.77.52711000146108.1"/>
            <value value="MBH_300_QA5_VV"/>
          </identifier>
          <display value="relatie naar verstrekkingsverzoek met identificatie: MBH_300_QA5_VV || 2.16.840.1.113883.2.4.3.11.999.77.52711000146108.1"/>
        </authorizingPrescription>
        <quantity>
          <extension url="http://hl7.org/fhir/StructureDefinition/iso21090-PQ-translation">
            <valueQuantity>
              <value value="56"/>
              <unit value="stuk"/>
              <system value="urn:oid:2.16.840.1.113883.2.4.4.1.900.2"/>
              <code value="245"/>
            </valueQuantity>
          </extension>
          <value value="56"/>
          <unit value="stuk"/>
          <system value="http://unitsofmeasure.org"/>
          <code value="1"/>
        </quantity>
        <whenHandedOver value="${DATE, T, D, -50}T09:15:00+02:00"/>
      </MedicationDispense>
    </resource>
    <request>
      <method value="POST"/>
      <url value="MedicationDispense"/>
    </request>
  </entry>
  <entry>
    <fullUrl value="urn:uuid:368c50fe-6b54-11ec-0000-020000000000"/>
    <resource>
      <MedicationDispense>
        <meta>
          <profile value="http://nictiz.nl/fhir/StructureDefinition/mp-MedicationDispense"/>
        </meta>
        <text>
          <status value="extensions"/>
          <div xmlns="http://www.w3.org/1999/xhtml">
            <table>
              <caption>MedicationDispense. Subject: Patient, R. van XXX_Sonnenberg. Id: MBH_300_QA6_MVE (urn:oid:2.16.840.1.113883.2.4.3.11.999.77.373784005.1), Categorie: <span title="verstrekken van medicatie (373784005 - SNOMED CT)">verstrekken van medicatie</span>, Status: voltooid<span style="display: block;">Uitvoerende: Healthcare provider (organization), Apotheek De Gulle Gaper</span>
              </caption>
              <tbody>
                <tr>
                  <th>Gebaseerd op</th>
                  <td>relatie naar verstrekkingsverzoek met identificatie: MBH_300_QA6_VV || 2.16.840.1.113883.2.4.3.11.999.77.52711000146108.1 (Id: MBH_300_QA6_VV (urn:oid:2.16.840.1.113883.2.4.3.11.999.77.52711000146108.1))</td>
                </tr>
                <tr>
                  <th>Medicatie</th>
                  <td>OXAZEPAM ACTAVIS TABLET 10MG</td>
                </tr>
                <tr>
                  <th>Hoeveelheid</th>
                  <td>21 stuks</td>
                </tr>
                <tr>
                  <th>Datum overhandigd</th>
                  <td>${DATE, T, D, -5}T09:18:00+02:00</td>
                </tr>
              </tbody>
            </table>
          </div>
        </text>
        <extension url="http://nictiz.nl/fhir/StructureDefinition/ext-PharmaceuticalTreatment.Identifier">
          <valueIdentifier>
            <system value="urn:oid:2.16.840.1.113883.2.4.3.11.999.77.1.1"/>
            <value value="MBH_300_QA6"/>
          </valueIdentifier>
        </extension>
        <identifier>
          <system value="urn:oid:2.16.840.1.113883.2.4.3.11.999.77.373784005.1"/>
          <value value="MBH_300_QA6_MVE"/>
        </identifier>
        <status value="completed"/>
        <category>
          <coding>
            <system value="http://snomed.info/sct"/>
            <code value="373784005"/>
            <display value="verstrekken van medicatie"/>
          </coding>
        </category>
        <medicationReference>
          <reference value="urn:uuid:80ff0804-6ab7-11ec-0000-020000000000"/>
          <type value="Medication"/>
          <display value="OXAZEPAM ACTAVIS TABLET 10MG"/>
        </medicationReference>
        <subject>
          <reference value="urn:uuid:ebdc44f8-6b2b-11ec-0000-020000000000"/>
          <type value="Patient"/>
          <display value="Patient, R. van XXX_Sonnenberg"/>
        </subject>
        <performer>
          <actor>
            <reference value="urn:uuid:10079464-6b64-11ec-0000-020000000000"/>
            <type value="Organization"/>
            <display value="Healthcare provider (organization), Apotheek De Gulle Gaper"/>
          </actor>
        </performer>
        <authorizingPrescription>
          <type value="MedicationRequest"/>
          <identifier>
            <system value="urn:oid:2.16.840.1.113883.2.4.3.11.999.77.52711000146108.1"/>
            <value value="MBH_300_QA6_VV"/>
          </identifier>
          <display value="relatie naar verstrekkingsverzoek met identificatie: MBH_300_QA6_VV || 2.16.840.1.113883.2.4.3.11.999.77.52711000146108.1"/>
        </authorizingPrescription>
        <quantity>
          <extension url="http://hl7.org/fhir/StructureDefinition/iso21090-PQ-translation">
            <valueQuantity>
              <value value="21"/>
              <unit value="stuks"/>
              <system value="urn:oid:2.16.840.1.113883.2.4.4.1.900.2"/>
              <code value="245"/>
            </valueQuantity>
          </extension>
          <value value="21"/>
          <unit value="stuks"/>
          <system value="http://unitsofmeasure.org"/>
          <code value="1"/>
        </quantity>
        <whenHandedOver value="${DATE, T, D, -5}T09:18:00+02:00"/>
      </MedicationDispense>
    </resource>
    <request>
      <method value="POST"/>
      <url value="MedicationDispense"/>
    </request>
  </entry>
  <entry>
    <fullUrl value="urn:uuid:ebdc44f8-6b2b-11ec-0000-020000000000"/>
    <resource>
      <Patient>
        <meta>
          <profile value="http://nictiz.nl/fhir/StructureDefinition/nl-core-Patient"/>
        </meta>
        <text>
          <status value="extensions"/>
          <div xmlns="http://www.w3.org/1999/xhtml">
            <div>Id 999901084 (BSN), <span title="Naamsamenstelling: Eigennaam">R. van XXX_Sonnenberg</span>, Man, 20 november 1985</div>
            <div>krommeweg 1001 A, 1234QQ Ons Dorp, Nederland (Privé Bezoek)</div>
          </div>
        </text>
        <identifier>
          <system value="http://fhir.nl/fhir/NamingSystem/bsn"/>
          <value value="999901084"/>
        </identifier>
        <name>
          <extension url="http://hl7.org/fhir/StructureDefinition/humanname-assembly-order">
            <valueCode value="NL1"/>
          </extension>
          <use value="official"/>
          <text value="R. van XXX_Sonnenberg"/>
          <family value="van XXX_Sonnenberg">
            <extension url="http://hl7.org/fhir/StructureDefinition/humanname-own-prefix">
              <valueString value="van"/>
            </extension>
            <extension url="http://hl7.org/fhir/StructureDefinition/humanname-own-name">
              <valueString value="XXX_Sonnenberg"/>
            </extension>
          </family>
          <given value="R.">
            <extension url="http://hl7.org/fhir/StructureDefinition/iso21090-EN-qualifier">
              <valueCode value="IN"/>
            </extension>
          </given>
        </name>
        <gender value="male">
          <extension url="http://nictiz.nl/fhir/StructureDefinition/ext-CodeSpecification">
            <valueCodeableConcept>
              <coding>
                <system value="http://terminology.hl7.org/CodeSystem/v3-AdministrativeGender"/>
                <code value="M"/>
                <display value="Man"/>
              </coding>
            </valueCodeableConcept>
          </extension>
        </gender>
        <birthDate value="1985-11-20"/>
        <address>
          <extension url="http://nictiz.nl/fhir/StructureDefinition/ext-AddressInformation.AddressType">
            <valueCodeableConcept>
              <coding>
                <system value="http://terminology.hl7.org/CodeSystem/v3-AddressUse"/>
                <code value="PHYS"/>
                <display value="Woon-/verblijfadres"/>
              </coding>
            </valueCodeableConcept>
          </extension>
          <use value="home"/>
          <type value="physical"/>
          <line value="krommeweg 1001 A">
            <extension url="http://hl7.org/fhir/StructureDefinition/iso21090-ADXP-streetName">
              <valueString value="krommeweg"/>
            </extension>
            <extension url="http://hl7.org/fhir/StructureDefinition/iso21090-ADXP-houseNumber">
              <valueString value="1001"/>
            </extension>
            <extension url="http://hl7.org/fhir/StructureDefinition/iso21090-ADXP-buildingNumberSuffix">
              <valueString value="A"/>
            </extension>
          </line>
          <city value="Ons Dorp"/>
          <postalCode value="1234QQ"/>
          <country value="Nederland">
            <extension url="http://nictiz.nl/fhir/StructureDefinition/ext-CodeSpecification">
              <valueCodeableConcept>
                <coding>
                  <system value="urn:iso:std:iso:3166"/>
                  <version value="2020-10-26T00:00:00"/>
                  <code value="NL"/>
                  <display value="Nederland"/>
                </coding>
              </valueCodeableConcept>
            </extension>
          </country>
        </address>
      </Patient>
    </resource>
    <request>
      <method value="POST"/>
      <url value="Patient"/>
    </request>
  </entry>
  <entry>
    <fullUrl value="urn:uuid:10079464-6b64-11ec-0000-020000000000"/>
    <resource>
      <Organization>
        <meta>
          <profile value="http://nictiz.nl/fhir/StructureDefinition/nl-core-HealthcareProvider-Organization"/>
        </meta>
        <text>
          <status value="extensions"/>
          <div xmlns="http://www.w3.org/1999/xhtml">
            <table>
              <caption>Organisatie. Id: 01236578 (URA)</caption>
              <tbody>
                <tr>
                  <th>Naam</th>
                  <td>Apotheek De Gulle Gaper</td>
                </tr>
                <tr>
                  <th>Adres</th>
                  <td>Dorpsstraat 12 A, 1234AA Ons Dorp (Werk)</td>
                </tr>
              </tbody>
            </table>
          </div>
        </text>
        <identifier>
          <system value="http://fhir.nl/fhir/NamingSystem/ura"/>
          <value value="01236578"/>
        </identifier>
        <name value="Apotheek De Gulle Gaper"/>
        <address>
          <extension url="http://nictiz.nl/fhir/StructureDefinition/ext-AddressInformation.AddressType">
            <valueCodeableConcept>
              <coding>
                <system value="http://terminology.hl7.org/CodeSystem/v3-AddressUse"/>
                <code value="WP"/>
                <display value="Werkadres"/>
              </coding>
            </valueCodeableConcept>
          </extension>
          <use value="work"/>
          <line value="Dorpsstraat 12 A">
            <extension url="http://hl7.org/fhir/StructureDefinition/iso21090-ADXP-streetName">
              <valueString value="Dorpsstraat"/>
            </extension>
            <extension url="http://hl7.org/fhir/StructureDefinition/iso21090-ADXP-houseNumber">
              <valueString value="12"/>
            </extension>
            <extension url="http://hl7.org/fhir/StructureDefinition/iso21090-ADXP-buildingNumberSuffix">
              <valueString value="A"/>
            </extension>
          </line>
          <city value="Ons Dorp"/>
          <postalCode value="1234AA"/>
        </address>
      </Organization>
    </resource>
    <request>
      <method value="POST"/>
      <url value="Organization"/>
    </request>
  </entry>
  <entry>
    <fullUrl value="urn:uuid:59ba831d-6b1f-11ec-0000-020000000000"/>
    <resource>
      <Medication>
        <meta>
          <profile value="http://nictiz.nl/fhir/StructureDefinition/mp-PharmaceuticalProduct"/>
        </meta>
        <text>
          <status value="extensions"/>
          <div xmlns="http://www.w3.org/1999/xhtml">
            <table>
              <tbody>
                <tr>
                  <th>Code</th>
                  <td>
                    <span title="ASPIRINE TABLET 100MG (202681 - G-Standaard HPK)">ASPIRINE TABLET 100MG</span>
                  </td>
                </tr>
              </tbody>
            </table>
          </div>
        </text>
        <code>
          <coding>
            <system value="urn:oid:2.16.840.1.113883.2.4.4.7"/>
            <code value="202681"/>
            <display value="ASPIRINE TABLET 100MG"/>
            <userSelected value="true"/>
          </coding>
          <coding>
            <system value="urn:oid:2.16.840.1.113883.2.4.4.10"/>
            <code value="3956"/>
            <display value="ACETYLSALICYLZUUR TABLET 100MG"/>
          </coding>
          <coding>
            <system value="urn:oid:2.16.840.1.113883.2.4.4.1"/>
            <code value="12548"/>
            <display value="ACETYLSALICYLZUUR TABLET 100MG"/>
          </coding>
          <text value="ASPIRINE TABLET 100MG"/>
        </code>
      </Medication>
    </resource>
    <request>
      <method value="POST"/>
      <url value="Medication"/>
    </request>
  </entry>
  <entry>
    <fullUrl value="urn:uuid:63ec4b04-6ab8-11ec-0000-020000000000"/>
    <resource>
      <Medication>
        <meta>
          <profile value="http://nictiz.nl/fhir/StructureDefinition/mp-PharmaceuticalProduct"/>
        </meta>
        <text>
          <status value="extensions"/>
          <div xmlns="http://www.w3.org/1999/xhtml">
            <table>
              <tbody>
                <tr>
                  <th>Code</th>
                  <td>
                    <span title="IBUPROFEN PCH TABLET 600MG (641898 - G-Standaard HPK)">IBUPROFEN PCH TABLET 600MG</span>
                  </td>
                </tr>
              </tbody>
            </table>
          </div>
        </text>
        <code>
          <coding>
            <system value="urn:oid:2.16.840.1.113883.2.4.4.7"/>
            <code value="641898"/>
            <display value="IBUPROFEN PCH TABLET 600MG"/>
            <userSelected value="true"/>
          </coding>
          <coding>
            <system value="urn:oid:2.16.840.1.113883.2.4.4.10"/>
            <code value="17469"/>
            <display value="IBUPROFEN TABLET 600MG"/>
          </coding>
          <coding>
            <system value="urn:oid:2.16.840.1.113883.2.4.4.1"/>
            <code value="42080"/>
            <display value="IBUPROFEN TABLET 600MG"/>
          </coding>
          <text value="IBUPROFEN PCH TABLET 600MG"/>
        </code>
      </Medication>
    </resource>
    <request>
      <method value="POST"/>
      <url value="Medication"/>
    </request>
  </entry>
  <entry>
    <fullUrl value="urn:uuid:80ff0804-6ab7-11ec-0000-020000000000"/>
    <resource>
      <Medication>
        <meta>
          <profile value="http://nictiz.nl/fhir/StructureDefinition/mp-PharmaceuticalProduct"/>
        </meta>
        <text>
          <status value="extensions"/>
          <div xmlns="http://www.w3.org/1999/xhtml">
            <table>
              <tbody>
                <tr>
                  <th>Code</th>
                  <td>
                    <span title="OXAZEPAM ACTAVIS TABLET 10MG (613401 - G-Standaard HPK)">OXAZEPAM ACTAVIS TABLET 10MG</span>
                  </td>
                </tr>
              </tbody>
            </table>
          </div>
        </text>
        <code>
          <coding>
            <system value="urn:oid:2.16.840.1.113883.2.4.4.7"/>
            <code value="613401"/>
            <display value="OXAZEPAM ACTAVIS TABLET 10MG"/>
            <userSelected value="true"/>
          </coding>
          <coding>
            <system value="urn:oid:2.16.840.1.113883.2.4.4.10"/>
            <code value="353"/>
            <display value="OXAZEPAM TABLET 10MG"/>
          </coding>
          <coding>
            <system value="urn:oid:2.16.840.1.113883.2.4.4.1"/>
            <code value="1023"/>
            <display value="OXAZEPAM TABLET 10MG"/>
          </coding>
          <text value="OXAZEPAM ACTAVIS TABLET 10MG"/>
        </code>
      </Medication>
    </resource>
    <request>
      <method value="POST"/>
      <url value="Medication"/>
    </request>
  </entry>
  <entry>
    <fullUrl value="urn:uuid:29c3071d-6ac8-11ec-0000-020000000000"/>
    <resource>
      <Medication>
        <meta>
          <profile value="http://nictiz.nl/fhir/StructureDefinition/mp-PharmaceuticalProduct"/>
        </meta>
        <text>
          <status value="extensions"/>
          <div xmlns="http://www.w3.org/1999/xhtml">
            <table>
              <tbody>
                <tr>
                  <th>Code</th>
                  <td>
                    <span title="PARACETAMOL SANDOZ TABLET 500MG (665800 - G-Standaard HPK)">PARACETAMOL SANDOZ TABLET 500MG</span>
                  </td>
                </tr>
              </tbody>
            </table>
          </div>
        </text>
        <code>
          <coding>
            <system value="urn:oid:2.16.840.1.113883.2.4.4.7"/>
            <code value="665800"/>
            <display value="PARACETAMOL SANDOZ TABLET 500MG"/>
            <userSelected value="true"/>
          </coding>
          <coding>
            <system value="urn:oid:2.16.840.1.113883.2.4.4.10"/>
            <code value="67903"/>
            <display value="PARACETAMOL 500MG TABLET"/>
          </coding>
          <coding>
            <system value="urn:oid:2.16.840.1.113883.2.4.4.1"/>
            <code value="2194"/>
            <display value="PARACETAMOL 500MG TABLET"/>
          </coding>
          <text value="PARACETAMOL SANDOZ TABLET 500MG"/>
        </code>
      </Medication>
    </resource>
    <request>
      <method value="POST"/>
      <url value="Medication"/>
    </request>
  </entry>
  <entry>
    <fullUrl value="urn:uuid:35c9591d-6ac3-11ec-0000-020000000000"/>
    <resource>
      <Medication>
        <meta>
          <profile value="http://nictiz.nl/fhir/StructureDefinition/mp-PharmaceuticalProduct"/>
        </meta>
        <text>
          <status value="extensions"/>
          <div xmlns="http://www.w3.org/1999/xhtml">
            <table>
              <tbody>
                <tr>
                  <th>Code</th>
                  <td>
                    <span title="XPRAEP SIROOP 2MG/ML (101079 - G-Standaard HPK)">XPRAEP SIROOP 2MG/ML</span>
                  </td>
                </tr>
              </tbody>
            </table>
          </div>
        </text>
        <code>
          <coding>
            <system value="urn:oid:2.16.840.1.113883.2.4.4.7"/>
            <code value="101079"/>
            <display value="XPRAEP SIROOP 2MG/ML"/>
            <userSelected value="true"/>
          </coding>
          <coding>
            <system value="urn:oid:2.16.840.1.113883.2.4.4.10"/>
            <code value="3379"/>
            <display value="SENNOSIDEN A+B 2MG/ML"/>
          </coding>
          <coding>
            <system value="urn:oid:2.16.840.1.113883.2.4.4.1"/>
            <code value="10960"/>
            <display value="SENNOSIDEN A+B 2MG/ML"/>
          </coding>
          <text value="XPRAEP SIROOP 2MG/ML"/>
        </code>
      </Medication>
    </resource>
    <request>
      <method value="POST"/>
      <url value="Medication"/>
    </request>
  </entry>
  <entry>
    <fullUrl value="urn:uuid:584ac0e9-6b34-11ec-0000-020000000000"/>
    <resource>
      <Medication>
        <meta>
          <profile value="http://nictiz.nl/fhir/StructureDefinition/mp-PharmaceuticalProduct"/>
        </meta>
        <text>
          <status value="extensions"/>
          <div xmlns="http://www.w3.org/1999/xhtml">
            <table>
              <tbody>
                <tr>
                  <th>Code</th>
                  <td>
                    <span title="NUTRIDRINK BANAANSMAAK (690090 - G-Standaard HPK)">NUTRIDRINK BANAANSMAAK</span>
                  </td>
                </tr>
              </tbody>
            </table>
          </div>
        </text>
        <code>
          <coding>
            <system value="urn:oid:2.16.840.1.113883.2.4.4.7"/>
            <code value="690090"/>
            <display value="NUTRIDRINK BANAANSMAAK"/>
            <userSelected value="true"/>
          </coding>
          <coding>
            <system value="urn:oid:2.16.840.1.113883.2.4.4.10"/>
            <code value="88749"/>
            <display value="VLOEIBARE VOEDING MET O.A. VITAMINE K"/>
          </coding>
          <coding>
            <system value="urn:oid:2.16.840.1.113883.2.4.4.1"/>
            <code value="130575"/>
            <display value="VLOEIBARE VOEDING MET O.A. VITAMINE K"/>
          </coding>
          <text value="NUTRIDRINK BANAANSMAAK"/>
        </code>
      </Medication>
    </resource>
    <request>
      <method value="POST"/>
      <url value="Medication"/>
    </request>
  </entry>
</Bundle>
