<Bundle xmlns="http://hl7.org/fhir">
  <id value="mg-mp-mg-tst-WDS-Scenarioset3-v30"/>
  <type value="transaction"/>
  <entry>
    <fullUrl value="urn:uuid:d765f70d-6aee-11ec-0000-020000000000"/>
    <resource>
      <MedicationRequest>
        <meta>
          <profile value="http://nictiz.nl/fhir/StructureDefinition/mp-VariableDosingRegimen"/>
        </meta>
        <text>
          <status value="extensions"/>
          <div xmlns="http://www.w3.org/1999/xhtml">
            <table>
              <caption>MedicationRequest. Subject: Patient, C. XXX_Dongen. Id: MBH_300_WDSwijziging_0dosering_startWDS (urn:oid:2.16.840.1.113883.2.4.3.11.999.77.632.1), Categorie: <span title="optimaliseren van dosering van medicatie (395067002 - SNOMED CT)">optimaliseren van dosering van medicatie</span>, Status: onbekend<span style="display: block;">Intentie: aanvraag</span>
                <span style="display: block;">Aangevraagd door: Healthcare professional (role), Tanja de Bakker, Trombosediensten, Trombosedienst Ons Dorp</span>
              </caption>
              <tfoot>
                <tr>
                  <td colspan="2">gemeten INR waarde: 2.4</td>
                </tr>
              </tfoot>
              <tbody>
                <tr>
                  <th>Gebaseerd op</th>
                  <td>relatie naar medicatieafspraak met identificatie: MBH_300_WDSwijziging_0dosering_MA || 2.16.840.1.113883.2.4.3.11.999.77.16076005.1 (Id: MBH_300_WDSwijziging_0dosering_MA (urn:oid:2.16.840.1.113883.2.4.3.11.999.77.16076005.1))</td>
                </tr>
                <tr>
                  <th>Medicatie</th>
                  <td>ACENOCOUMAROL TABLET 1MG</td>
                </tr>
                <tr>
                  <th>Gemaakt</th>
                  <td>${DATE, T, D, -5}T13:45:00+02:00</td>
                </tr>
                <tr>
                  <th>Doseerinstructie</th>
                  <td>
                    <div>Volgnummer: 1</div>
                    <div>Timing: <div>5 dag, eenmalig per dag</div>
                    </div>
                    <div>Toedieningsweg: <span title="Oraal (9 - G-Standaard thesaurus subtabel 0007)">Oraal</span>
                    </div>
                    <div>Dosering: doseAndRate TODO</div>
                  </td>
                </tr>
                <tr>
                  <th>Doseerinstructie</th>
                  <td>
                    <div>Volgnummer: 2</div>
                    <div>Timing: <div>2 dag, eenmalig per dag</div>
                    </div>
                    <div>Toedieningsweg: <span title="Oraal (9 - G-Standaard thesaurus subtabel 0007)">Oraal</span>
                    </div>
                    <div>Dosering: doseAndRate TODO</div>
                  </td>
                </tr>
              </tbody>
            </table>
          </div>
        </text>
        <extension url="http://nictiz.nl/fhir/StructureDefinition/ext-PharmaceuticalTreatment.Identifier">
          <valueIdentifier>
            <system value="urn:oid:2.16.840.1.113883.2.4.3.11.999.77.1.1"/>
            <value value="MBH_300_WDSwijziging_0dosering"/>
          </valueIdentifier>
        </extension>
        <extension url="http://nictiz.nl/fhir/StructureDefinition/ext-RenderedDosageInstruction">
          <valueString value="Vanaf T - 5 dagen, gedurende 2 weken, cyclus van 7 dagen: steeds eerst gedurende 5 dagen 1 maal per dag 2 stuks, dan gedurende 2 dagen 1 maal per dag 3 stuks, Oraal"/>
        </extension>
        <extension url="http://nictiz.nl/fhir/StructureDefinition/ext-TimeInterval.Period">
          <valuePeriod>
            <extension url="http://nictiz.nl/fhir/StructureDefinition/ext-TimeInterval.Duration">
              <valueDuration>
                <value value="2"/>
                <unit value="week"/>
                <system value="http://unitsofmeasure.org"/>
                <code value="wk"/>
              </valueDuration>
            </extension>
            <start value="${DATE, T, D, -5}T00:00:00+02:00"/>
          </valuePeriod>
        </extension>
        <modifierExtension url="http://nictiz.nl/fhir/StructureDefinition/ext-InstructionsForUse.RepeatPeriodCyclicalSchedule">
          <valueDuration>
            <value value="7"/>
            <unit value="dag"/>
            <system value="http://unitsofmeasure.org"/>
            <code value="d"/>
          </valueDuration>
        </modifierExtension>
        <identifier>
          <system value="urn:oid:2.16.840.1.113883.2.4.3.11.999.77.632.1"/>
          <value value="MBH_300_WDSwijziging_0dosering_startWDS"/>
        </identifier>
        <status value="unknown"/>
        <intent value="order"/>
        <category>
          <coding>
            <system value="http://snomed.info/sct"/>
            <code value="395067002"/>
            <display value="optimaliseren van dosering van medicatie"/>
          </coding>
        </category>
        <medicationReference>
          <reference value="urn:uuid:ca0c3ae9-6aff-11ec-0000-020000000000"/>
          <type value="Medication"/>
          <display value="ACENOCOUMAROL TABLET 1MG"/>
        </medicationReference>
        <subject>
          <reference value="urn:uuid:d0c78ff2-6adc-11ec-0000-020000000000"/>
          <type value="Patient"/>
          <display value="Patient, C. XXX_Dongen"/>
        </subject>
        <authoredOn value="${DATE, T, D, -5}T13:45:00+02:00"/>
        <requester>
          <reference value="urn:uuid:8d3d1824-6aeb-11ec-0000-020000000000"/>
          <type value="PractitionerRole"/>
          <display value="Healthcare professional (role), Tanja de Bakker, Trombosediensten, Trombosedienst Ons Dorp"/>
        </requester>
        <basedOn>
          <type value="MedicationRequest"/>
          <identifier>
            <system value="urn:oid:2.16.840.1.113883.2.4.3.11.999.77.16076005.1"/>
            <value value="MBH_300_WDSwijziging_0dosering_MA"/>
          </identifier>
          <display value="relatie naar medicatieafspraak met identificatie: MBH_300_WDSwijziging_0dosering_MA || 2.16.840.1.113883.2.4.3.11.999.77.16076005.1"/>
        </basedOn>
        <note>
          <text value="gemeten INR waarde: 2.4"/>
        </note>
        <dosageInstruction>
          <sequence value="1"/>
          <timing>
            <repeat>
              <boundsDuration>
                <value value="5"/>
                <unit value="dag"/>
                <system value="http://unitsofmeasure.org"/>
                <code value="d"/>
              </boundsDuration>
              <frequency value="1"/>
              <period value="1"/>
              <periodUnit value="d"/>
            </repeat>
          </timing>
          <route>
            <coding>
              <system value="urn:oid:2.16.840.1.113883.2.4.4.9"/>
              <code value="9"/>
              <display value="Oraal"/>
            </coding>
          </route>
          <doseAndRate>
            <doseQuantity>
              <extension url="http://hl7.org/fhir/StructureDefinition/iso21090-PQ-translation">
                <valueQuantity>
                  <value value="2"/>
                  <unit value="stuk"/>
                  <system value="urn:oid:2.16.840.1.113883.2.4.4.1.900.2"/>
                  <code value="245"/>
                </valueQuantity>
              </extension>
              <value value="2"/>
              <unit value="stuk"/>
              <system value="http://unitsofmeasure.org"/>
              <code value="1"/>
            </doseQuantity>
          </doseAndRate>
        </dosageInstruction>
        <dosageInstruction>
          <sequence value="2"/>
          <timing>
            <repeat>
              <boundsDuration>
                <value value="2"/>
                <unit value="dag"/>
                <system value="http://unitsofmeasure.org"/>
                <code value="d"/>
              </boundsDuration>
              <frequency value="1"/>
              <period value="1"/>
              <periodUnit value="d"/>
            </repeat>
          </timing>
          <route>
            <coding>
              <system value="urn:oid:2.16.840.1.113883.2.4.4.9"/>
              <code value="9"/>
              <display value="Oraal"/>
            </coding>
          </route>
          <doseAndRate>
            <doseQuantity>
              <extension url="http://hl7.org/fhir/StructureDefinition/iso21090-PQ-translation">
                <valueQuantity>
                  <value value="3"/>
                  <unit value="stuk"/>
                  <system value="urn:oid:2.16.840.1.113883.2.4.4.1.900.2"/>
                  <code value="245"/>
                </valueQuantity>
              </extension>
              <value value="3"/>
              <unit value="stuk"/>
              <system value="http://unitsofmeasure.org"/>
              <code value="1"/>
            </doseQuantity>
          </doseAndRate>
        </dosageInstruction>
      </MedicationRequest>
    </resource>
    <request>
      <method value="POST"/>
      <url value="MedicationRequest"/>
    </request>
  </entry>
  <entry>
    <fullUrl value="urn:uuid:bf31870d-6a9c-11ec-0000-020000000000"/>
    <resource>
      <MedicationRequest>
        <meta>
          <profile value="http://nictiz.nl/fhir/StructureDefinition/mp-VariableDosingRegimen"/>
        </meta>
        <text>
          <status value="extensions"/>
          <div xmlns="http://www.w3.org/1999/xhtml">
            <table>
              <caption>MedicationRequest. Subject: Patient, C. XXX_Dongen. Id: MBH_300_WDSwijziging_0dosering_wijzigingWDS (urn:oid:2.16.840.1.113883.2.4.3.11.999.77.632.1), Categorie: <span title="optimaliseren van dosering van medicatie (395067002 - SNOMED CT)">optimaliseren van dosering van medicatie</span>, Status: onbekend<span style="display: block;">Intentie: aanvraag</span>
                <span style="display: block;">Aangevraagd door: Healthcare professional (role), Tanja de Bakker, Trombosediensten, Trombosedienst Ons Dorp</span>
              </caption>
              <tbody>
                <tr>
                  <th>Gebaseerd op</th>
                  <td>relatie naar medicatieafspraak met identificatie: MBH_300_WDSwijziging_0dosering_MA || 2.16.840.1.113883.2.4.3.11.999.77.16076005.1 (Id: MBH_300_WDSwijziging_0dosering_MA (urn:oid:2.16.840.1.113883.2.4.3.11.999.77.16076005.1))</td>
                </tr>
                <tr>
                  <th>Medicatie</th>
                  <td>ACENOCOUMAROL TABLET 1MG</td>
                </tr>
                <tr>
                  <th>Gemaakt</th>
                  <td>${DATE, T, D, -1}T15:11:00+02:00</td>
                </tr>
                <tr>
                  <th>Reden</th>
                  <td>
                    <span title="Overig (OTH - http://terminology.hl7.org/CodeSystem/v3-NullFlavor)">Overig</span>
                  </td>
                </tr>
                <tr>
                  <th>Doseerinstructie</th>
                  <td>
                    <div>Volgnummer: 1</div>
                    <div>Timing: <div>3 dag, eenmalig per dag</div>
                    </div>
                    <div>Toedieningsweg: <span title="Oraal (9 - G-Standaard thesaurus subtabel 0007)">Oraal</span>
                    </div>
                    <div>Dosering: doseAndRate TODO</div>
                  </td>
                </tr>
                <tr>
                  <th>Doseerinstructie</th>
                  <td>
                    <div>Volgnummer: 2</div>
                    <div>Timing: <div>2 dag, eenmalig per dag</div>
                    </div>
                    <div>Toedieningsweg: <span title="Oraal (9 - G-Standaard thesaurus subtabel 0007)">Oraal</span>
                    </div>
                    <div>Dosering: doseAndRate TODO</div>
                  </td>
                </tr>
                <tr>
                  <th>Doseerinstructie</th>
                  <td>
                    <div>Volgnummer: 3</div>
                    <div>Timing: <div>2 dag, eenmalig per dag</div>
                    </div>
                    <div>Toedieningsweg: <span title="Oraal (9 - G-Standaard thesaurus subtabel 0007)">Oraal</span>
                    </div>
                    <div>Dosering: doseAndRate TODO</div>
                  </td>
                </tr>
              </tbody>
            </table>
          </div>
        </text>
        <extension url="http://nictiz.nl/fhir/StructureDefinition/ext-PharmaceuticalTreatment.Identifier">
          <valueIdentifier>
            <system value="urn:oid:2.16.840.1.113883.2.4.3.11.999.77.1.1"/>
            <value value="MBH_300_WDSwijziging_0dosering"/>
          </valueIdentifier>
        </extension>
        <extension url="http://nictiz.nl/fhir/StructureDefinition/ext-RenderedDosageInstruction">
          <valueString value="Vanaf T - 1 dag, gedurende 7 dagen, eerst gedurende 3 dagen 1 maal per dag 0 stuks, dan gedurende 2 dagen 1 maal per dag 4 stuks, dan gedurende 2 dagen 1 maal per dag 2 stuks, Oraal"/>
        </extension>
        <extension url="http://nictiz.nl/fhir/StructureDefinition/ext-TimeInterval.Period">
          <valuePeriod>
            <extension url="http://nictiz.nl/fhir/StructureDefinition/ext-TimeInterval.Duration">
              <valueDuration>
                <value value="7"/>
                <unit value="dag"/>
                <system value="http://unitsofmeasure.org"/>
                <code value="d"/>
              </valueDuration>
            </extension>
            <start value="${DATE, T, D, -1}T00:00:00+02:00"/>
          </valuePeriod>
        </extension>
        <identifier>
          <system value="urn:oid:2.16.840.1.113883.2.4.3.11.999.77.632.1"/>
          <value value="MBH_300_WDSwijziging_0dosering_wijzigingWDS"/>
        </identifier>
        <status value="unknown"/>
        <intent value="order"/>
        <category>
          <coding>
            <system value="http://snomed.info/sct"/>
            <code value="395067002"/>
            <display value="optimaliseren van dosering van medicatie"/>
          </coding>
        </category>
        <medicationReference>
          <reference value="urn:uuid:ca0c3ae9-6aff-11ec-0000-020000000000"/>
          <type value="Medication"/>
          <display value="ACENOCOUMAROL TABLET 1MG"/>
        </medicationReference>
        <subject>
          <reference value="urn:uuid:d0c78ff2-6adc-11ec-0000-020000000000"/>
          <type value="Patient"/>
          <display value="Patient, C. XXX_Dongen"/>
        </subject>
        <authoredOn value="${DATE, T, D, -1}T15:11:00+02:00"/>
        <requester>
          <reference value="urn:uuid:8d3d1824-6aeb-11ec-0000-020000000000"/>
          <type value="PractitionerRole"/>
          <display value="Healthcare professional (role), Tanja de Bakker, Trombosediensten, Trombosedienst Ons Dorp"/>
        </requester>
        <reasonCode>
          <coding>
            <system value="http://terminology.hl7.org/CodeSystem/v3-NullFlavor"/>
            <code value="OTH"/>
            <display value="Overig"/>
          </coding>
          <text value="Bloeding door ongeluk"/>
        </reasonCode>
        <basedOn>
          <type value="MedicationRequest"/>
          <identifier>
            <system value="urn:oid:2.16.840.1.113883.2.4.3.11.999.77.16076005.1"/>
            <value value="MBH_300_WDSwijziging_0dosering_MA"/>
          </identifier>
          <display value="relatie naar medicatieafspraak met identificatie: MBH_300_WDSwijziging_0dosering_MA || 2.16.840.1.113883.2.4.3.11.999.77.16076005.1"/>
        </basedOn>
        <dosageInstruction>
          <sequence value="1"/>
          <timing>
            <repeat>
              <boundsDuration>
                <value value="3"/>
                <unit value="dag"/>
                <system value="http://unitsofmeasure.org"/>
                <code value="d"/>
              </boundsDuration>
              <frequency value="1"/>
              <period value="1"/>
              <periodUnit value="d"/>
            </repeat>
          </timing>
          <route>
            <coding>
              <system value="urn:oid:2.16.840.1.113883.2.4.4.9"/>
              <code value="9"/>
              <display value="Oraal"/>
            </coding>
          </route>
          <doseAndRate>
            <doseQuantity>
              <extension url="http://hl7.org/fhir/StructureDefinition/iso21090-PQ-translation">
                <valueQuantity>
                  <value value="0"/>
                  <unit value="stuk"/>
                  <system value="urn:oid:2.16.840.1.113883.2.4.4.1.900.2"/>
                  <code value="245"/>
                </valueQuantity>
              </extension>
              <value value="0"/>
              <unit value="stuk"/>
              <system value="http://unitsofmeasure.org"/>
              <code value="1"/>
            </doseQuantity>
          </doseAndRate>
        </dosageInstruction>
        <dosageInstruction>
          <sequence value="2"/>
          <timing>
            <repeat>
              <boundsDuration>
                <value value="2"/>
                <unit value="dag"/>
                <system value="http://unitsofmeasure.org"/>
                <code value="d"/>
              </boundsDuration>
              <frequency value="1"/>
              <period value="1"/>
              <periodUnit value="d"/>
            </repeat>
          </timing>
          <route>
            <coding>
              <system value="urn:oid:2.16.840.1.113883.2.4.4.9"/>
              <code value="9"/>
              <display value="Oraal"/>
            </coding>
          </route>
          <doseAndRate>
            <doseQuantity>
              <extension url="http://hl7.org/fhir/StructureDefinition/iso21090-PQ-translation">
                <valueQuantity>
                  <value value="4"/>
                  <unit value="stuk"/>
                  <system value="urn:oid:2.16.840.1.113883.2.4.4.1.900.2"/>
                  <code value="245"/>
                </valueQuantity>
              </extension>
              <value value="4"/>
              <unit value="stuk"/>
              <system value="http://unitsofmeasure.org"/>
              <code value="1"/>
            </doseQuantity>
          </doseAndRate>
        </dosageInstruction>
        <dosageInstruction>
          <sequence value="3"/>
          <timing>
            <repeat>
              <boundsDuration>
                <value value="2"/>
                <unit value="dag"/>
                <system value="http://unitsofmeasure.org"/>
                <code value="d"/>
              </boundsDuration>
              <frequency value="1"/>
              <period value="1"/>
              <periodUnit value="d"/>
            </repeat>
          </timing>
          <route>
            <coding>
              <system value="urn:oid:2.16.840.1.113883.2.4.4.9"/>
              <code value="9"/>
              <display value="Oraal"/>
            </coding>
          </route>
          <doseAndRate>
            <doseQuantity>
              <extension url="http://hl7.org/fhir/StructureDefinition/iso21090-PQ-translation">
                <valueQuantity>
                  <value value="2"/>
                  <unit value="stuk"/>
                  <system value="urn:oid:2.16.840.1.113883.2.4.4.1.900.2"/>
                  <code value="245"/>
                </valueQuantity>
              </extension>
              <value value="2"/>
              <unit value="stuk"/>
              <system value="http://unitsofmeasure.org"/>
              <code value="1"/>
            </doseQuantity>
          </doseAndRate>
        </dosageInstruction>
        <priorPrescription>
          <type value="MedicationRequest"/>
          <identifier>
            <system value="urn:oid:2.16.840.1.113883.2.4.3.11.999.77.632.1"/>
            <value value="MBH_300_WDSwijziging_0dosering_startWDS"/>
          </identifier>
          <display value="relatie naar wisselend doseerschema met identificatie: MBH_300_WDSwijziging_0dosering_startWDS || 2.16.840.1.113883.2.4.3.11.999.77.632.1"/>
        </priorPrescription>
      </MedicationRequest>
    </resource>
    <request>
      <method value="POST"/>
      <url value="MedicationRequest"/>
    </request>
  </entry>
  <entry>
    <fullUrl value="urn:uuid:f1a29d0d-6b32-11ec-0000-020000000000"/>
    <resource>
      <MedicationRequest>
        <meta>
          <profile value="http://nictiz.nl/fhir/StructureDefinition/mp-VariableDosingRegimen"/>
        </meta>
        <text>
          <status value="extensions"/>
          <div xmlns="http://www.w3.org/1999/xhtml">
            <table>
              <caption>MedicationRequest. Subject: Patient, C. XXX_Dongen. Id: MBH_300_WDSwijziging_0dosering_techstopWDS (urn:oid:2.16.840.1.113883.2.4.3.11.999.77.632.1), Categorie: <span title="optimaliseren van dosering van medicatie (395067002 - SNOMED CT)">optimaliseren van dosering van medicatie</span>, Status: onbekend<span style="display: block;">Intentie: aanvraag</span>
                <span style="display: block;">Aangevraagd door: Healthcare professional (role), Tanja de Bakker, Trombosediensten, Trombosedienst Ons Dorp</span>
              </caption>
              <tfoot>
                <tr>
                  <td colspan="2">gemeten INR waarde: 2.4</td>
                </tr>
              </tfoot>
              <tbody>
                <tr>
                  <th>Gebaseerd op</th>
                  <td>relatie naar medicatieafspraak met identificatie: MBH_300_WDSwijziging_0dosering_MA || 2.16.840.1.113883.2.4.3.11.999.77.16076005.1 (Id: MBH_300_WDSwijziging_0dosering_MA (urn:oid:2.16.840.1.113883.2.4.3.11.999.77.16076005.1))</td>
                </tr>
                <tr>
                  <th>Medicatie</th>
                  <td>ACENOCOUMAROL TABLET 1MG</td>
                </tr>
                <tr>
                  <th>Gemaakt</th>
                  <td>${DATE, T, D, -1}T15:11:00+02:00</td>
                </tr>
                <tr>
                  <th>Doseerinstructie</th>
                  <td>
                    <div>Volgnummer: 1</div>
                    <div>Timing: <div>5 dag, eenmalig per dag</div>
                    </div>
                    <div>Toedieningsweg: <span title="Oraal (9 - G-Standaard thesaurus subtabel 0007)">Oraal</span>
                    </div>
                    <div>Dosering: doseAndRate TODO</div>
                  </td>
                </tr>
                <tr>
                  <th>Doseerinstructie</th>
                  <td>
                    <div>Volgnummer: 2</div>
                    <div>Timing: <div>2 dag, eenmalig per dag</div>
                    </div>
                    <div>Toedieningsweg: <span title="Oraal (9 - G-Standaard thesaurus subtabel 0007)">Oraal</span>
                    </div>
                    <div>Dosering: doseAndRate TODO</div>
                  </td>
                </tr>
              </tbody>
            </table>
          </div>
        </text>
        <extension url="http://nictiz.nl/fhir/StructureDefinition/ext-PharmaceuticalTreatment.Identifier">
          <valueIdentifier>
            <system value="urn:oid:2.16.840.1.113883.2.4.3.11.999.77.1.1"/>
            <value value="MBH_300_WDSwijziging_0dosering"/>
          </valueIdentifier>
        </extension>
        <extension url="http://nictiz.nl/fhir/StructureDefinition/ext-RenderedDosageInstruction">
          <valueString value="Vanaf T - 5 dagen, tot en met T - 2 dagen, cyclus van 7 dagen: steeds eerst gedurende 5 dagen 1 maal per dag 2 stuks, dan gedurende 2 dagen 1 maal per dag 3 stuks, Oraal, stopgezet"/>
        </extension>
        <extension url="http://nictiz.nl/fhir/StructureDefinition/ext-TimeInterval.Period">
          <valuePeriod>
            <start value="${DATE, T, D, -5}T00:00:00+02:00"/>
            <end value="${DATE, T, D, -2}T23:59:59+02:00"/>
          </valuePeriod>
        </extension>
        <modifierExtension url="http://nictiz.nl/fhir/StructureDefinition/ext-InstructionsForUse.RepeatPeriodCyclicalSchedule">
          <valueDuration>
            <value value="7"/>
            <unit value="dag"/>
            <system value="http://unitsofmeasure.org"/>
            <code value="d"/>
          </valueDuration>
        </modifierExtension>
        <modifierExtension url="http://nictiz.nl/fhir/StructureDefinition/ext-StopType">
          <valueCodeableConcept>
            <coding>
              <system value="http://snomed.info/sct"/>
              <code value="410546004"/>
              <display value="stopgezet"/>
            </coding>
          </valueCodeableConcept>
        </modifierExtension>
        <identifier>
          <system value="urn:oid:2.16.840.1.113883.2.4.3.11.999.77.632.1"/>
          <value value="MBH_300_WDSwijziging_0dosering_techstopWDS"/>
        </identifier>
        <status value="unknown"/>
        <intent value="order"/>
        <category>
          <coding>
            <system value="http://snomed.info/sct"/>
            <code value="395067002"/>
            <display value="optimaliseren van dosering van medicatie"/>
          </coding>
        </category>
        <medicationReference>
          <reference value="urn:uuid:ca0c3ae9-6aff-11ec-0000-020000000000"/>
          <type value="Medication"/>
          <display value="ACENOCOUMAROL TABLET 1MG"/>
        </medicationReference>
        <subject>
          <reference value="urn:uuid:d0c78ff2-6adc-11ec-0000-020000000000"/>
          <type value="Patient"/>
          <display value="Patient, C. XXX_Dongen"/>
        </subject>
        <authoredOn value="${DATE, T, D, -1}T15:11:00+02:00"/>
        <requester>
          <reference value="urn:uuid:8d3d1824-6aeb-11ec-0000-020000000000"/>
          <type value="PractitionerRole"/>
          <display value="Healthcare professional (role), Tanja de Bakker, Trombosediensten, Trombosedienst Ons Dorp"/>
        </requester>
        <basedOn>
          <type value="MedicationRequest"/>
          <identifier>
            <system value="urn:oid:2.16.840.1.113883.2.4.3.11.999.77.16076005.1"/>
            <value value="MBH_300_WDSwijziging_0dosering_MA"/>
          </identifier>
          <display value="relatie naar medicatieafspraak met identificatie: MBH_300_WDSwijziging_0dosering_MA || 2.16.840.1.113883.2.4.3.11.999.77.16076005.1"/>
        </basedOn>
        <note>
          <text value="gemeten INR waarde: 2.4"/>
        </note>
        <dosageInstruction>
          <sequence value="1"/>
          <timing>
            <repeat>
              <boundsDuration>
                <value value="5"/>
                <unit value="dag"/>
                <system value="http://unitsofmeasure.org"/>
                <code value="d"/>
              </boundsDuration>
              <frequency value="1"/>
              <period value="1"/>
              <periodUnit value="d"/>
            </repeat>
          </timing>
          <route>
            <coding>
              <system value="urn:oid:2.16.840.1.113883.2.4.4.9"/>
              <code value="9"/>
              <display value="Oraal"/>
            </coding>
          </route>
          <doseAndRate>
            <doseQuantity>
              <extension url="http://hl7.org/fhir/StructureDefinition/iso21090-PQ-translation">
                <valueQuantity>
                  <value value="2"/>
                  <unit value="stuk"/>
                  <system value="urn:oid:2.16.840.1.113883.2.4.4.1.900.2"/>
                  <code value="245"/>
                </valueQuantity>
              </extension>
              <value value="2"/>
              <unit value="stuk"/>
              <system value="http://unitsofmeasure.org"/>
              <code value="1"/>
            </doseQuantity>
          </doseAndRate>
        </dosageInstruction>
        <dosageInstruction>
          <sequence value="2"/>
          <timing>
            <repeat>
              <boundsDuration>
                <value value="2"/>
                <unit value="dag"/>
                <system value="http://unitsofmeasure.org"/>
                <code value="d"/>
              </boundsDuration>
              <frequency value="1"/>
              <period value="1"/>
              <periodUnit value="d"/>
            </repeat>
          </timing>
          <route>
            <coding>
              <system value="urn:oid:2.16.840.1.113883.2.4.4.9"/>
              <code value="9"/>
              <display value="Oraal"/>
            </coding>
          </route>
          <doseAndRate>
            <doseQuantity>
              <extension url="http://hl7.org/fhir/StructureDefinition/iso21090-PQ-translation">
                <valueQuantity>
                  <value value="3"/>
                  <unit value="stuk"/>
                  <system value="urn:oid:2.16.840.1.113883.2.4.4.1.900.2"/>
                  <code value="245"/>
                </valueQuantity>
              </extension>
              <value value="3"/>
              <unit value="stuk"/>
              <system value="http://unitsofmeasure.org"/>
              <code value="1"/>
            </doseQuantity>
          </doseAndRate>
        </dosageInstruction>
        <priorPrescription>
          <type value="MedicationRequest"/>
          <identifier>
            <system value="urn:oid:2.16.840.1.113883.2.4.3.11.999.77.632.1"/>
            <value value="MBH_300_WDSwijziging_0dosering_startWDS"/>
          </identifier>
          <display value="relatie naar wisselend doseerschema met identificatie: MBH_300_WDSwijziging_0dosering_startWDS || 2.16.840.1.113883.2.4.3.11.999.77.632.1"/>
        </priorPrescription>
      </MedicationRequest>
    </resource>
    <request>
      <method value="POST"/>
      <url value="MedicationRequest"/>
    </request>
  </entry>
  <entry>
    <fullUrl value="urn:uuid:d0c78ff2-6adc-11ec-0000-020000000000"/>
    <resource>
      <Patient>
        <meta>
          <profile value="http://nictiz.nl/fhir/StructureDefinition/nl-core-Patient"/>
        </meta>
        <text>
          <status value="extensions"/>
          <div xmlns="http://www.w3.org/1999/xhtml">
            <div>Id 999900493 (BSN), <span title="Naamsamenstelling: Eigennaam">C. XXX_Dongen</span>, Vrouw, 23 oktober 1963</div>
          </div>
        </text>
        <identifier>
          <system value="http://fhir.nl/fhir/NamingSystem/bsn"/>
          <value value="999900493"/>
        </identifier>
        <name>
          <extension url="http://hl7.org/fhir/StructureDefinition/humanname-assembly-order">
            <valueCode value="NL1"/>
          </extension>
          <use value="official"/>
          <text value="C. XXX_Dongen"/>
          <family value="XXX_Dongen">
            <extension url="http://hl7.org/fhir/StructureDefinition/humanname-own-name">
              <valueString value="XXX_Dongen"/>
            </extension>
          </family>
          <given value="C.">
            <extension url="http://hl7.org/fhir/StructureDefinition/iso21090-EN-qualifier">
              <valueCode value="IN"/>
            </extension>
          </given>
        </name>
        <gender value="female">
          <extension url="http://nictiz.nl/fhir/StructureDefinition/ext-CodeSpecification">
            <valueCodeableConcept>
              <coding>
                <system value="http://terminology.hl7.org/CodeSystem/v3-AdministrativeGender"/>
                <code value="F"/>
                <display value="Vrouw"/>
              </coding>
            </valueCodeableConcept>
          </extension>
        </gender>
        <birthDate value="1963-10-23"/>
      </Patient>
    </resource>
    <request>
      <method value="POST"/>
      <url value="Patient"/>
    </request>
  </entry>
  <entry>
    <fullUrl value="urn:uuid:8d3d1824-6aeb-11ec-0000-020000000000"/>
    <resource>
      <PractitionerRole>
        <meta>
          <profile value="http://nictiz.nl/fhir/StructureDefinition/nl-core-HealthProfessional-PractitionerRole"/>
        </meta>
        <text>
          <status value="extensions"/>
          <div xmlns="http://www.w3.org/1999/xhtml">
            <table>
              <caption>Zorgverlenerrol. </caption>
              <tbody>
                <tr>
                  <th>Zorgverlener</th>
                  <td>
                    <div>Healthcare professional (person), Tanja de Bakker</div>
                    <div>Healthcare provider (organization), Trombosedienst Ons Dorp</div>
                  </td>
                </tr>
                <tr>
                  <th>Specialisme</th>
                  <td>
                    <span title="Trombosediensten (3400 - AGB-medisch specialisme)">Trombosediensten</span>
                  </td>
                </tr>
              </tbody>
            </table>
          </div>
        </text>
        <practitioner>
          <reference value="urn:uuid:7cac7558-6b5d-11ec-0000-020000000000"/>
          <type value="Practitioner"/>
          <display value="Healthcare professional (person), Tanja de Bakker"/>
        </practitioner>
        <organization>
          <reference value="urn:uuid:5bc4856e-6b7b-11ec-0000-020000000000"/>
          <type value="Organization"/>
          <display value="Healthcare provider (organization), Trombosedienst Ons Dorp"/>
        </organization>
        <specialty>
          <coding>
            <system value="urn:oid:2.16.840.1.113883.2.4.6.7"/>
            <version value="2020-10-23T00:00:00"/>
            <code value="3400"/>
            <display value="Trombosediensten"/>
          </coding>
        </specialty>
      </PractitionerRole>
    </resource>
    <request>
      <method value="POST"/>
      <url value="PractitionerRole"/>
    </request>
  </entry>
  <entry>
    <fullUrl value="urn:uuid:7cac7558-6b5d-11ec-0000-020000000000"/>
    <resource>
      <Practitioner>
        <meta>
          <profile value="http://nictiz.nl/fhir/StructureDefinition/nl-core-HealthProfessional-Practitioner"/>
        </meta>
        <text>
          <status value="extensions"/>
          <div xmlns="http://www.w3.org/1999/xhtml">
            <div>Id 222221111 (UZI-NR-PERS), Tanja de Bakker</div>
          </div>
        </text>
        <identifier>
          <system value="http://fhir.nl/fhir/NamingSystem/uzi-nr-pers"/>
          <value value="222221111"/>
        </identifier>
        <name>
          <use value="official"/>
          <text value="Tanja de Bakker"/>
          <family value="de Bakker">
            <extension url="http://hl7.org/fhir/StructureDefinition/humanname-own-prefix">
              <valueString value="de"/>
            </extension>
            <extension url="http://hl7.org/fhir/StructureDefinition/humanname-own-name">
              <valueString value="Bakker"/>
            </extension>
          </family>
          <given value="Tanja">
            <extension url="http://hl7.org/fhir/StructureDefinition/iso21090-EN-qualifier">
              <valueCode value="BR"/>
            </extension>
          </given>
        </name>
      </Practitioner>
    </resource>
    <request>
      <method value="POST"/>
      <url value="Practitioner"/>
    </request>
  </entry>
  <entry>
    <fullUrl value="urn:uuid:5bc4856e-6b7b-11ec-0000-020000000000"/>
    <resource>
      <Organization>
        <meta>
          <profile value="http://nictiz.nl/fhir/StructureDefinition/nl-core-HealthcareProvider-Organization"/>
        </meta>
        <text>
          <status value="extensions"/>
          <div xmlns="http://www.w3.org/1999/xhtml">
            <table>
              <caption>Organisatie. Id: 11112222 (URA)</caption>
              <tbody>
                <tr>
                  <th>Naam</th>
                  <td>Trombosedienst Ons Dorp</td>
                </tr>
                <tr>
                  <th>Type</th>
                  <td>
                    <span title="Trombosediensten (3400 - AGB-medisch specialisme)">Trombosediensten</span>
                  </td>
                </tr>
                <tr>
                  <th>Adres</th>
                  <td>Kerkstraat 28 d, 1332GH Ons Dorp</td>
                </tr>
              </tbody>
            </table>
          </div>
        </text>
        <identifier>
          <system value="http://fhir.nl/fhir/NamingSystem/ura"/>
          <value value="11112222"/>
        </identifier>
        <type>
          <coding>
            <system value="urn:oid:2.16.840.1.113883.2.4.6.7"/>
            <version value="2020-10-23T00:00:00"/>
            <code value="3400"/>
            <display value="Trombosediensten"/>
          </coding>
        </type>
        <name value="Trombosedienst Ons Dorp"/>
        <address>
          <line value="Kerkstraat 28 d">
            <extension url="http://hl7.org/fhir/StructureDefinition/iso21090-ADXP-streetName">
              <valueString value="Kerkstraat"/>
            </extension>
            <extension url="http://hl7.org/fhir/StructureDefinition/iso21090-ADXP-houseNumber">
              <valueString value="28"/>
            </extension>
            <extension url="http://hl7.org/fhir/StructureDefinition/iso21090-ADXP-buildingNumberSuffix">
              <valueString value="d"/>
            </extension>
          </line>
          <city value="Ons Dorp"/>
          <postalCode value="1332GH"/>
        </address>
      </Organization>
    </resource>
    <request>
      <method value="POST"/>
      <url value="Organization"/>
    </request>
  </entry>
  <entry>
    <fullUrl value="urn:uuid:ca0c3ae9-6aff-11ec-0000-020000000000"/>
    <resource>
      <Medication>
        <meta>
          <profile value="http://nictiz.nl/fhir/StructureDefinition/mp-PharmaceuticalProduct"/>
        </meta>
        <text>
          <status value="extensions"/>
          <div xmlns="http://www.w3.org/1999/xhtml">
            <table>
              <tbody>
                <tr>
                  <th>Code</th>
                  <td>
                    <span title="ACENOCOUMAROL TABLET 1MG (7323 - G-Standaard PRK)">ACENOCOUMAROL TABLET 1MG</span>
                  </td>
                </tr>
              </tbody>
            </table>
          </div>
        </text>
        <code>
          <coding>
            <system value="urn:oid:2.16.840.1.113883.2.4.4.10"/>
            <code value="7323"/>
            <display value="ACENOCOUMAROL TABLET 1MG"/>
            <userSelected value="true"/>
          </coding>
          <coding>
            <system value="urn:oid:2.16.840.1.113883.2.4.4.1"/>
            <code value="20303"/>
            <display value="ACENOCOUMAROL TABLET 1MG"/>
          </coding>
          <text value="ACENOCOUMAROL TABLET 1MG"/>
        </code>
      </Medication>
    </resource>
    <request>
      <method value="POST"/>
      <url value="Medication"/>
    </request>
  </entry>
</Bundle>
