{
  "resourceType": "Bundle",
  "id": "mgsets-mp-smg-tst-MTD-Scenarioset3-v30",
  "type": "transaction",
  "entry": [ {
    "fullUrl": "urn:uuid:645a955d-6b56-11ec-0000-020000000000",
    "resource": {
      "resourceType": "MedicationAdministration",
      "meta": {
        "profile": [ "http://nictiz.nl/fhir/StructureDefinition/mp-MedicationAdministration2" ]
      },
      "text": {
        "status": "extensions",
        "div": "<div xmlns=\"http://www.w3.org/1999/xhtml\">\n            <table>\n              <caption>Medicatietoediening. Subject: Patient, J. de XXX_Luzac. Id: MBH_300_MTDopschorten_MTD1 (urn:oid:2.16.840.1.113883.2.4.3.11.999.77.18629005.1), Categorie: <span title=\"toediening van medicatie (18629005 - SNOMED CT)\">toediening van medicatie</span>, Status: onbekend</caption>\n              <tbody>\n                <tr>\n                  <th>Medicatie</th>\n                  <td>PROPRANOLOL HCL SANDOZ TABLET 80MG</td>\n                </tr>\n                <tr>\n                  <th>Datum/tijd</th>\n                  <td>${DATE, T, D, -4}T08:38:45+02:00</td>\n                </tr>\n                <tr>\n                  <th>Ondersteunende informatie</th>\n                  <td>relatie naar toedieningsafspraak met identificatie: MBH_300_MTDopschorten_TA || 2.16.840.1.113883.2.4.3.11.999.77.422037009.1 (Id: MBH_300_MTDopschorten_TA (urn:oid:2.16.840.1.113883.2.4.3.11.999.77.422037009.1))</td>\n                </tr>\n                <tr>\n                  <th>Dosering</th>\n                  <td>\n                    <div>Toedieningsweg: <span title=\"oraal (9 - G-Standaard thesaurus subtabel 0007)\">oraal</span>\n                    </div>\n                    <div>Dosering: 0 stuk</div>\n                  </td>\n                </tr>\n              </tbody>\n            </table>\n          </div>"
      },
      "extension": [ {
        "url": "http://nictiz.nl/fhir/StructureDefinition/ext-RegistrationDateTime",
        "valueDateTime": "${DATE, T, D, -4}T08:38:45+02:00"
      }, {
        "url": "http://nictiz.nl/fhir/StructureDefinition/ext-MedicationAdministration2.ReasonForDeviation",
        "valueCodeableConcept": {
          "coding": [ {
            "system": "http://snomed.info/sct",
            "code": "408366001",
            "display": "niet in staat om medicatie te gebruiken"
          } ]
        }
      }, {
        "url": "http://nictiz.nl/fhir/StructureDefinition/ext-PharmaceuticalTreatment.Identifier",
        "valueIdentifier": {
          "system": "urn:oid:2.16.840.1.113883.2.4.3.11.999.77.1.1",
          "value": "MBH_300_MTDopschorten"
        }
      } ],
      "identifier": [ {
        "system": "urn:oid:2.16.840.1.113883.2.4.3.11.999.77.18629005.1",
        "value": "MBH_300_MTDopschorten_MTD1"
      } ],
      "status": "unknown",
      "category": {
        "coding": [ {
          "system": "http://snomed.info/sct",
          "code": "18629005",
          "display": "toediening van medicatie"
        } ]
      },
      "medicationReference": {
        "reference": "urn:uuid:ad7bdb1d-6af8-11ec-0000-020000000000",
        "type": "Medication",
        "display": "PROPRANOLOL HCL SANDOZ TABLET 80MG"
      },
      "subject": {
        "reference": "urn:uuid:1c84b21e-6b37-11ec-0000-020000000000",
        "type": "Patient",
        "display": "Patient, J. de XXX_Luzac"
      },
      "supportingInformation": [ {
        "type": "MedicationDispense",
        "identifier": {
          "system": "urn:oid:2.16.840.1.113883.2.4.3.11.999.77.422037009.1",
          "value": "MBH_300_MTDopschorten_TA"
        },
        "display": "relatie naar toedieningsafspraak met identificatie: MBH_300_MTDopschorten_TA || 2.16.840.1.113883.2.4.3.11.999.77.422037009.1"
      } ],
      "effectiveDateTime": "${DATE, T, D, -4}T08:38:45+02:00",
      "performer": [ {
        "actor": {
          "reference": "urn:uuid:a757282e-6b76-11ec-0000-020000000000",
          "type": "PractitionerRole",
          "display": "Healthcare professional (role), Jantien Toedien, Verpleegkundigen, niet nader gespecificeerd, Thuiszorg Om en Bij"
        }
      } ],
      "dosage": {
        "route": {
          "coding": [ {
            "system": "urn:oid:2.16.840.1.113883.2.4.4.9",
            "code": "9",
            "display": "oraal"
          } ]
        },
        "dose": {
          "extension": [ {
            "url": "http://hl7.org/fhir/StructureDefinition/iso21090-PQ-translation",
            "valueQuantity": {
              "value": 0,
              "unit": "stuk",
              "system": "urn:oid:2.16.840.1.113883.2.4.4.1.900.2",
              "code": "245"
            }
          } ],
          "value": 0,
          "unit": "stuk",
          "system": "http://unitsofmeasure.org",
          "code": "1"
        }
      }
    },
    "request": {
      "method": "POST",
      "url": "MedicationAdministration"
    }
  }, {
    "fullUrl": "urn:uuid:bfa1100f-6aeb-11ec-0000-020000000000",
    "resource": {
      "resourceType": "MedicationAdministration",
      "meta": {
        "profile": [ "http://nictiz.nl/fhir/StructureDefinition/mp-MedicationAdministration2" ]
      },
      "text": {
        "status": "extensions",
        "div": "<div xmlns=\"http://www.w3.org/1999/xhtml\">\n            <table>\n              <caption>Medicatietoediening. Subject: Patient, J. de XXX_Luzac. Id: MBH_300_MTDopschorten_MTD2 (urn:oid:2.16.840.1.113883.2.4.3.11.999.77.18629005.1), Categorie: <span title=\"toediening van medicatie (18629005 - SNOMED CT)\">toediening van medicatie</span>, Status: onbekend</caption>\n              <tbody>\n                <tr>\n                  <th>Medicatie</th>\n                  <td>PROPRANOLOL HCL SANDOZ TABLET 80MG</td>\n                </tr>\n                <tr>\n                  <th>Datum/tijd</th>\n                  <td>${DATE, T, D, -4}T11:22:06+02:00</td>\n                </tr>\n                <tr>\n                  <th>Ondersteunende informatie</th>\n                  <td>relatie naar toedieningsafspraak met identificatie: MBH_300_MTDopschorten_TA || 2.16.840.1.113883.2.4.3.11.999.77.422037009.1 (Id: MBH_300_MTDopschorten_TA (urn:oid:2.16.840.1.113883.2.4.3.11.999.77.422037009.1))</td>\n                </tr>\n                <tr>\n                  <th>Dosering</th>\n                  <td>\n                    <div>Toedieningsweg: <span title=\"oraal (9 - G-Standaard thesaurus subtabel 0007)\">oraal</span>\n                    </div>\n                    <div>Dosering: 1 stuk</div>\n                  </td>\n                </tr>\n              </tbody>\n            </table>\n          </div>"
      },
      "extension": [ {
        "url": "http://nictiz.nl/fhir/StructureDefinition/ext-RegistrationDateTime",
        "valueDateTime": "${DATE, T, D, -4}T11:22:06+02:00"
      }, {
        "url": "http://nictiz.nl/fhir/StructureDefinition/ext-PharmaceuticalTreatment.Identifier",
        "valueIdentifier": {
          "system": "urn:oid:2.16.840.1.113883.2.4.3.11.999.77.1.1",
          "value": "MBH_300_MTDopschorten"
        }
      } ],
      "identifier": [ {
        "system": "urn:oid:2.16.840.1.113883.2.4.3.11.999.77.18629005.1",
        "value": "MBH_300_MTDopschorten_MTD2"
      } ],
      "status": "unknown",
      "category": {
        "coding": [ {
          "system": "http://snomed.info/sct",
          "code": "18629005",
          "display": "toediening van medicatie"
        } ]
      },
      "medicationReference": {
        "reference": "urn:uuid:ad7bdb1d-6af8-11ec-0000-020000000000",
        "type": "Medication",
        "display": "PROPRANOLOL HCL SANDOZ TABLET 80MG"
      },
      "subject": {
        "reference": "urn:uuid:1c84b21e-6b37-11ec-0000-020000000000",
        "type": "Patient",
        "display": "Patient, J. de XXX_Luzac"
      },
      "supportingInformation": [ {
        "type": "MedicationDispense",
        "identifier": {
          "system": "urn:oid:2.16.840.1.113883.2.4.3.11.999.77.422037009.1",
          "value": "MBH_300_MTDopschorten_TA"
        },
        "display": "relatie naar toedieningsafspraak met identificatie: MBH_300_MTDopschorten_TA || 2.16.840.1.113883.2.4.3.11.999.77.422037009.1"
      } ],
      "effectiveDateTime": "${DATE, T, D, -4}T11:22:06+02:00",
      "performer": [ {
        "actor": {
          "reference": "urn:uuid:a757282e-6b76-11ec-0000-020000000000",
          "type": "PractitionerRole",
          "display": "Healthcare professional (role), Jantien Toedien, Verpleegkundigen, niet nader gespecificeerd, Thuiszorg Om en Bij"
        }
      } ],
      "dosage": {
        "route": {
          "coding": [ {
            "system": "urn:oid:2.16.840.1.113883.2.4.4.9",
            "code": "9",
            "display": "oraal"
          } ]
        },
        "dose": {
          "extension": [ {
            "url": "http://hl7.org/fhir/StructureDefinition/iso21090-PQ-translation",
            "valueQuantity": {
              "value": 1,
              "unit": "stuk",
              "system": "urn:oid:2.16.840.1.113883.2.4.4.1.900.2",
              "code": "245"
            }
          } ],
          "value": 1,
          "unit": "stuk",
          "system": "http://unitsofmeasure.org",
          "code": "1"
        }
      }
    },
    "request": {
      "method": "POST",
      "url": "MedicationAdministration"
    }
  }, {
    "fullUrl": "urn:uuid:e202500f-6b22-11ec-0000-020000000000",
    "resource": {
      "resourceType": "MedicationAdministration",
      "meta": {
        "profile": [ "http://nictiz.nl/fhir/StructureDefinition/mp-MedicationAdministration2" ]
      },
      "text": {
        "status": "extensions",
        "div": "<div xmlns=\"http://www.w3.org/1999/xhtml\">\n            <table>\n              <caption>Medicatietoediening. Subject: Patient, J. de XXX_Luzac. Id: mbh_300_AfwijkendeToediening_MTD_normaal (urn:oid:2.16.840.1.113883.2.4.3.11.999.77.18629005.1), Categorie: <span title=\"toediening van medicatie (18629005 - SNOMED CT)\">toediening van medicatie</span>, Status: onbekend</caption>\n              <tbody>\n                <tr>\n                  <th>Medicatie</th>\n                  <td>AMLODIPINE PCH TABLET 5MG (ALS BESILAAT)</td>\n                </tr>\n                <tr>\n                  <th>Datum/tijd</th>\n                  <td>${DATE, T, D, -1}T11:00:00+02:00</td>\n                </tr>\n                <tr>\n                  <th>Ondersteunende informatie</th>\n                  <td>relatie naar toedieningsafspraak met identificatie: mbh_300_AfwijkendeToediening_TA || 2.16.840.1.113883.2.4.3.11.999.77.422037009.1 (Id: mbh_300_AfwijkendeToediening_TA (urn:oid:2.16.840.1.113883.2.4.3.11.999.77.422037009.1))</td>\n                </tr>\n                <tr>\n                  <th>Dosering</th>\n                  <td>\n                    <div>Toedieningsweg: <span title=\"Oraal (9 - G-Standaard thesaurus subtabel 0007)\">Oraal</span>\n                    </div>\n                    <div>Dosering: 2 stuks</div>\n                  </td>\n                </tr>\n              </tbody>\n            </table>\n          </div>"
      },
      "extension": [ {
        "url": "http://nictiz.nl/fhir/StructureDefinition/ext-RegistrationDateTime",
        "valueDateTime": "${DATE, T, D, -1}T11:00:00+02:00"
      }, {
        "url": "http://nictiz.nl/fhir/StructureDefinition/ext-PharmaceuticalTreatment.Identifier",
        "valueIdentifier": {
          "system": "urn:oid:2.16.840.1.113883.2.4.3.11.999.77.1.1",
          "value": "mbh_300_AfwijkendeToediening"
        }
      } ],
      "identifier": [ {
        "system": "urn:oid:2.16.840.1.113883.2.4.3.11.999.77.18629005.1",
        "value": "mbh_300_AfwijkendeToediening_MTD_normaal"
      } ],
      "status": "unknown",
      "category": {
        "coding": [ {
          "system": "http://snomed.info/sct",
          "code": "18629005",
          "display": "toediening van medicatie"
        } ]
      },
      "medicationReference": {
        "reference": "urn:uuid:65e39e04-6b43-11ec-0000-020000000000",
        "type": "Medication",
        "display": "AMLODIPINE PCH TABLET 5MG (ALS BESILAAT)"
      },
      "subject": {
        "reference": "urn:uuid:1c84b21e-6b37-11ec-0000-020000000000",
        "type": "Patient",
        "display": "Patient, J. de XXX_Luzac"
      },
      "supportingInformation": [ {
        "type": "MedicationDispense",
        "identifier": {
          "system": "urn:oid:2.16.840.1.113883.2.4.3.11.999.77.422037009.1",
          "value": "mbh_300_AfwijkendeToediening_TA"
        },
        "display": "relatie naar toedieningsafspraak met identificatie: mbh_300_AfwijkendeToediening_TA || 2.16.840.1.113883.2.4.3.11.999.77.422037009.1"
      } ],
      "effectiveDateTime": "${DATE, T, D, -1}T11:00:00+02:00",
      "performer": [ {
        "actor": {
          "reference": "urn:uuid:a757282e-6b76-11ec-0000-020000000000",
          "type": "PractitionerRole",
          "display": "Healthcare professional (role), Jantien Toedien, Verpleegkundigen, niet nader gespecificeerd, Thuiszorg Om en Bij"
        }
      } ],
      "dosage": {
        "route": {
          "coding": [ {
            "system": "urn:oid:2.16.840.1.113883.2.4.4.9",
            "code": "9",
            "display": "Oraal"
          } ]
        },
        "dose": {
          "extension": [ {
            "url": "http://hl7.org/fhir/StructureDefinition/iso21090-PQ-translation",
            "valueQuantity": {
              "value": 2,
              "unit": "stuks",
              "system": "urn:oid:2.16.840.1.113883.2.4.4.1.900.2",
              "code": "245"
            }
          } ],
          "value": 2,
          "unit": "stuks",
          "system": "http://unitsofmeasure.org",
          "code": "1"
        }
      }
    },
    "request": {
      "method": "POST",
      "url": "MedicationAdministration"
    }
  }, {
    "fullUrl": "urn:uuid:0513cc96-6abe-11ec-0000-020000000000",
    "resource": {
      "resourceType": "MedicationAdministration",
      "meta": {
        "profile": [ "http://nictiz.nl/fhir/StructureDefinition/mp-MedicationAdministration2" ]
      },
      "text": {
        "status": "extensions",
        "div": "<div xmlns=\"http://www.w3.org/1999/xhtml\">\n            <table>\n              <caption>Medicatietoediening. Subject: Patient, J. de XXX_Luzac. Id: mbh_300_AfwijkendeToediening_MTD_afwijkendeHoeveelheid (urn:oid:2.16.840.1.113883.2.4.3.11.999.77.18629005.1), Categorie: <span title=\"toediening van medicatie (18629005 - SNOMED CT)\">toediening van medicatie</span>, Status: onbekend</caption>\n              <tbody>\n                <tr>\n                  <th>Medicatie</th>\n                  <td>AMLODIPINE PCH TABLET 5MG (ALS BESILAAT)</td>\n                </tr>\n                <tr>\n                  <th>Datum/tijd</th>\n                  <td>${DATE, T, D, +0}T11:00:00+02:00</td>\n                </tr>\n                <tr>\n                  <th>Ondersteunende informatie</th>\n                  <td>relatie naar toedieningsafspraak met identificatie: mbh_300_AfwijkendeToediening_TA || 2.16.840.1.113883.2.4.3.11.999.77.422037009.1 (Id: mbh_300_AfwijkendeToediening_TA (urn:oid:2.16.840.1.113883.2.4.3.11.999.77.422037009.1))</td>\n                </tr>\n                <tr>\n                  <th>Dosering</th>\n                  <td>\n                    <div>Toedieningsweg: <span title=\"Oraal (9 - G-Standaard thesaurus subtabel 0007)\">Oraal</span>\n                    </div>\n                    <div>Dosering: 1 stuks</div>\n                  </td>\n                </tr>\n              </tbody>\n            </table>\n          </div>"
      },
      "extension": [ {
        "url": "http://nictiz.nl/fhir/StructureDefinition/ext-RegistrationDateTime",
        "valueDateTime": "${DATE, T, D, +0}T11:00:00+02:00"
      }, {
        "url": "http://nictiz.nl/fhir/StructureDefinition/ext-MedicationAdministration2.ReasonForDeviation",
        "valueCodeableConcept": {
          "coding": [ {
            "system": "http://terminology.hl7.org/CodeSystem/v3-NullFlavor",
            "code": "OTH",
            "display": "Overig"
          } ],
          "text": "Tensie meting uitgevoerd. Uitslag: laag-normaal. Daarom 1 stuks toegediend i.p.v. 2."
        }
      }, {
        "url": "http://nictiz.nl/fhir/StructureDefinition/ext-PharmaceuticalTreatment.Identifier",
        "valueIdentifier": {
          "system": "urn:oid:2.16.840.1.113883.2.4.3.11.999.77.1.1",
          "value": "mbh_300_AfwijkendeToediening"
        }
      } ],
      "identifier": [ {
        "system": "urn:oid:2.16.840.1.113883.2.4.3.11.999.77.18629005.1",
        "value": "mbh_300_AfwijkendeToediening_MTD_afwijkendeHoeveelheid"
      } ],
      "status": "unknown",
      "category": {
        "coding": [ {
          "system": "http://snomed.info/sct",
          "code": "18629005",
          "display": "toediening van medicatie"
        } ]
      },
      "medicationReference": {
        "reference": "urn:uuid:65e39e04-6b43-11ec-0000-020000000000",
        "type": "Medication",
        "display": "AMLODIPINE PCH TABLET 5MG (ALS BESILAAT)"
      },
      "subject": {
        "reference": "urn:uuid:1c84b21e-6b37-11ec-0000-020000000000",
        "type": "Patient",
        "display": "Patient, J. de XXX_Luzac"
      },
      "supportingInformation": [ {
        "type": "MedicationDispense",
        "identifier": {
          "system": "urn:oid:2.16.840.1.113883.2.4.3.11.999.77.422037009.1",
          "value": "mbh_300_AfwijkendeToediening_TA"
        },
        "display": "relatie naar toedieningsafspraak met identificatie: mbh_300_AfwijkendeToediening_TA || 2.16.840.1.113883.2.4.3.11.999.77.422037009.1"
      } ],
      "effectiveDateTime": "${DATE, T, D, +0}T11:00:00+02:00",
      "performer": [ {
        "actor": {
          "reference": "urn:uuid:a757282e-6b76-11ec-0000-020000000000",
          "type": "PractitionerRole",
          "display": "Healthcare professional (role), Jantien Toedien, Verpleegkundigen, niet nader gespecificeerd, Thuiszorg Om en Bij"
        }
      } ],
      "dosage": {
        "route": {
          "coding": [ {
            "system": "urn:oid:2.16.840.1.113883.2.4.4.9",
            "code": "9",
            "display": "Oraal"
          } ]
        },
        "dose": {
          "extension": [ {
            "url": "http://hl7.org/fhir/StructureDefinition/iso21090-PQ-translation",
            "valueQuantity": {
              "value": 1,
              "unit": "stuks",
              "system": "urn:oid:2.16.840.1.113883.2.4.4.1.900.2",
              "code": "245"
            }
          } ],
          "value": 1,
          "unit": "stuks",
          "system": "http://unitsofmeasure.org",
          "code": "1"
        }
      }
    },
    "request": {
      "method": "POST",
      "url": "MedicationAdministration"
    }
  }, {
    "fullUrl": "urn:uuid:495bd80f-6b02-11ec-0000-020000000000",
    "resource": {
      "resourceType": "MedicationAdministration",
      "meta": {
        "profile": [ "http://nictiz.nl/fhir/StructureDefinition/mp-MedicationAdministration2" ]
      },
      "text": {
        "status": "extensions",
        "div": "<div xmlns=\"http://www.w3.org/1999/xhtml\">\n            <table>\n              <caption>Medicatietoediening. Subject: Patient, J. de XXX_Luzac. Id: MBH_300_CorrectieToediening_MTD_normaal (urn:oid:2.16.840.1.113883.2.4.3.11.999.77.18629005.1), Categorie: <span title=\"toediening van medicatie (18629005 - SNOMED CT)\">toediening van medicatie</span>, Status: onbekend</caption>\n              <tbody>\n                <tr>\n                  <th>Medicatie</th>\n                  <td>TRIMETHOPRIM CF TABLET 300MG</td>\n                </tr>\n                <tr>\n                  <th>Datum/tijd</th>\n                  <td>${DATE, T, D, -2}T13:45:00+02:00</td>\n                </tr>\n                <tr>\n                  <th>Ondersteunende informatie</th>\n                  <td>relatie naar toedieningsafspraak met identificatie: MBH_300_CorrectieToediening_TA || 2.16.840.1.113883.2.4.3.11.999.77.422037009.1 (Id: MBH_300_CorrectieToediening_TA (urn:oid:2.16.840.1.113883.2.4.3.11.999.77.422037009.1))</td>\n                </tr>\n                <tr>\n                  <th>Dosering</th>\n                  <td>\n                    <div>Toedieningsweg: <span title=\"Oraal (9 - G-Standaard thesaurus subtabel 0007)\">Oraal</span>\n                    </div>\n                    <div>Dosering: 1 stuks</div>\n                  </td>\n                </tr>\n              </tbody>\n            </table>\n          </div>"
      },
      "extension": [ {
        "url": "http://nictiz.nl/fhir/StructureDefinition/ext-RegistrationDateTime",
        "valueDateTime": "${DATE, T, D, -2}T13:45:00+02:00"
      }, {
        "url": "http://nictiz.nl/fhir/StructureDefinition/ext-PharmaceuticalTreatment.Identifier",
        "valueIdentifier": {
          "system": "urn:oid:2.16.840.1.113883.2.4.3.11.999.77.1.1",
          "value": "MBH_300_CorrectieToediening"
        }
      } ],
      "identifier": [ {
        "system": "urn:oid:2.16.840.1.113883.2.4.3.11.999.77.18629005.1",
        "value": "MBH_300_CorrectieToediening_MTD_normaal"
      } ],
      "status": "unknown",
      "category": {
        "coding": [ {
          "system": "http://snomed.info/sct",
          "code": "18629005",
          "display": "toediening van medicatie"
        } ]
      },
      "medicationReference": {
        "reference": "urn:uuid:578367e9-6ab0-11ec-0000-020000000000",
        "type": "Medication",
        "display": "TRIMETHOPRIM CF TABLET 300MG"
      },
      "subject": {
        "reference": "urn:uuid:1c84b21e-6b37-11ec-0000-020000000000",
        "type": "Patient",
        "display": "Patient, J. de XXX_Luzac"
      },
      "supportingInformation": [ {
        "type": "MedicationDispense",
        "identifier": {
          "system": "urn:oid:2.16.840.1.113883.2.4.3.11.999.77.422037009.1",
          "value": "MBH_300_CorrectieToediening_TA"
        },
        "display": "relatie naar toedieningsafspraak met identificatie: MBH_300_CorrectieToediening_TA || 2.16.840.1.113883.2.4.3.11.999.77.422037009.1"
      } ],
      "effectiveDateTime": "${DATE, T, D, -2}T13:45:00+02:00",
      "performer": [ {
        "actor": {
          "reference": "urn:uuid:a757282e-6b76-11ec-0000-020000000000",
          "type": "PractitionerRole",
          "display": "Healthcare professional (role), Jantien Toedien, Verpleegkundigen, niet nader gespecificeerd, Thuiszorg Om en Bij"
        }
      } ],
      "dosage": {
        "route": {
          "coding": [ {
            "system": "urn:oid:2.16.840.1.113883.2.4.4.9",
            "code": "9",
            "display": "Oraal"
          } ]
        },
        "dose": {
          "extension": [ {
            "url": "http://hl7.org/fhir/StructureDefinition/iso21090-PQ-translation",
            "valueQuantity": {
              "value": 1,
              "unit": "stuks",
              "system": "urn:oid:2.16.840.1.113883.2.4.4.1.900.2",
              "code": "245"
            }
          } ],
          "value": 1,
          "unit": "stuks",
          "system": "http://unitsofmeasure.org",
          "code": "1"
        }
      }
    },
    "request": {
      "method": "POST",
      "url": "MedicationAdministration"
    }
  }, {
    "fullUrl": "urn:uuid:6b37780f-6b5f-11ec-0000-020000000000",
    "resource": {
      "resourceType": "MedicationAdministration",
      "meta": {
        "profile": [ "http://nictiz.nl/fhir/StructureDefinition/mp-MedicationAdministration2" ]
      },
      "text": {
        "status": "extensions",
        "div": "<div xmlns=\"http://www.w3.org/1999/xhtml\">\n            <table>\n              <caption>Medicatietoediening. Subject: Patient, J. de XXX_Luzac. Id: MBH_300_CorrectieToediening_MTD_extraHoeveelheid (urn:oid:2.16.840.1.113883.2.4.3.11.999.77.18629005.1), Categorie: <span title=\"toediening van medicatie (18629005 - SNOMED CT)\">toediening van medicatie</span>, Status: onbekend</caption>\n              <tbody>\n                <tr>\n                  <th>Medicatie</th>\n                  <td>TRIMETHOPRIM CF TABLET 300MG</td>\n                </tr>\n                <tr>\n                  <th>Datum/tijd</th>\n                  <td>${DATE, T, D, -2}T13:45:00+02:00</td>\n                </tr>\n                <tr>\n                  <th>Ondersteunende informatie</th>\n                  <td>relatie naar toedieningsafspraak met identificatie: MBH_300_CorrectieToediening_TA || 2.16.840.1.113883.2.4.3.11.999.77.422037009.1 (Id: MBH_300_CorrectieToediening_TA (urn:oid:2.16.840.1.113883.2.4.3.11.999.77.422037009.1))</td>\n                </tr>\n                <tr>\n                  <th>Dosering</th>\n                  <td>\n                    <div>Toedieningsweg: <span title=\"Oraal (9 - G-Standaard thesaurus subtabel 0007)\">Oraal</span>\n                    </div>\n                    <div>Dosering: 2 stuks</div>\n                  </td>\n                </tr>\n              </tbody>\n            </table>\n          </div>"
      },
      "extension": [ {
        "url": "http://nictiz.nl/fhir/StructureDefinition/ext-RegistrationDateTime",
        "valueDateTime": "${DATE, T, D, -2}T13:50:00+02:00"
      }, {
        "url": "http://nictiz.nl/fhir/StructureDefinition/ext-PharmaceuticalTreatment.Identifier",
        "valueIdentifier": {
          "system": "urn:oid:2.16.840.1.113883.2.4.3.11.999.77.1.1",
          "value": "MBH_300_CorrectieToediening"
        }
      } ],
      "identifier": [ {
        "system": "urn:oid:2.16.840.1.113883.2.4.3.11.999.77.18629005.1",
        "value": "MBH_300_CorrectieToediening_MTD_extraHoeveelheid"
      } ],
      "status": "unknown",
      "category": {
        "coding": [ {
          "system": "http://snomed.info/sct",
          "code": "18629005",
          "display": "toediening van medicatie"
        } ]
      },
      "medicationReference": {
        "reference": "urn:uuid:578367e9-6ab0-11ec-0000-020000000000",
        "type": "Medication",
        "display": "TRIMETHOPRIM CF TABLET 300MG"
      },
      "subject": {
        "reference": "urn:uuid:1c84b21e-6b37-11ec-0000-020000000000",
        "type": "Patient",
        "display": "Patient, J. de XXX_Luzac"
      },
      "supportingInformation": [ {
        "type": "MedicationDispense",
        "identifier": {
          "system": "urn:oid:2.16.840.1.113883.2.4.3.11.999.77.422037009.1",
          "value": "MBH_300_CorrectieToediening_TA"
        },
        "display": "relatie naar toedieningsafspraak met identificatie: MBH_300_CorrectieToediening_TA || 2.16.840.1.113883.2.4.3.11.999.77.422037009.1"
      } ],
      "effectiveDateTime": "${DATE, T, D, -2}T13:45:00+02:00",
      "performer": [ {
        "actor": {
          "reference": "urn:uuid:a757282e-6b76-11ec-0000-020000000000",
          "type": "PractitionerRole",
          "display": "Healthcare professional (role), Jantien Toedien, Verpleegkundigen, niet nader gespecificeerd, Thuiszorg Om en Bij"
        }
      } ],
      "dosage": {
        "route": {
          "coding": [ {
            "system": "urn:oid:2.16.840.1.113883.2.4.4.9",
            "code": "9",
            "display": "Oraal"
          } ]
        },
        "dose": {
          "extension": [ {
            "url": "http://hl7.org/fhir/StructureDefinition/iso21090-PQ-translation",
            "valueQuantity": {
              "value": 2,
              "unit": "stuks",
              "system": "urn:oid:2.16.840.1.113883.2.4.4.1.900.2",
              "code": "245"
            }
          } ],
          "value": 2,
          "unit": "stuks",
          "system": "http://unitsofmeasure.org",
          "code": "1"
        }
      }
    },
    "request": {
      "method": "POST",
      "url": "MedicationAdministration"
    }
  }, {
    "fullUrl": "urn:uuid:6223b80f-6b19-11ec-0000-020000000000",
    "resource": {
      "resourceType": "MedicationAdministration",
      "meta": {
        "profile": [ "http://nictiz.nl/fhir/StructureDefinition/mp-MedicationAdministration2" ]
      },
      "text": {
        "status": "extensions",
        "div": "<div xmlns=\"http://www.w3.org/1999/xhtml\">\n            <table>\n              <caption>Medicatietoediening. Subject: Patient, J. de XXX_Luzac. Id: MBH_300_CorrectieOpToediening_verkeerdehoeveelheid_MTD (urn:oid:2.16.840.1.113883.2.4.3.11.999.77.18629005.1), Categorie: <span title=\"toediening van medicatie (18629005 - SNOMED CT)\">toediening van medicatie</span>, Status: onbekend</caption>\n              <tbody>\n                <tr>\n                  <th>Medicatie</th>\n                  <td>PANTOZOL TABLET MSR 20MG</td>\n                </tr>\n                <tr>\n                  <th>Datum/tijd</th>\n                  <td>${DATE, T, D, -3}T07:45:00+02:00</td>\n                </tr>\n                <tr>\n                  <th>Ondersteunende informatie</th>\n                  <td>relatie naar toedieningsafspraak met identificatie: MBH_300_CorrectieOpToediening_TA || 2.16.840.1.113883.2.4.3.11.999.77.422037009.1 (Id: MBH_300_CorrectieOpToediening_TA (urn:oid:2.16.840.1.113883.2.4.3.11.999.77.422037009.1))</td>\n                </tr>\n                <tr>\n                  <th>Dosering</th>\n                  <td>\n                    <div>Toedieningsweg: <span title=\"Oraal (9 - G-Standaard thesaurus subtabel 0007)\">Oraal</span>\n                    </div>\n                    <div>Dosering: 1 Stuk</div>\n                  </td>\n                </tr>\n              </tbody>\n            </table>\n          </div>"
      },
      "extension": [ {
        "url": "http://nictiz.nl/fhir/StructureDefinition/ext-RegistrationDateTime",
        "valueDateTime": "${DATE, T, D, -3}T07:45:00+02:00"
      }, {
        "url": "http://nictiz.nl/fhir/StructureDefinition/ext-PharmaceuticalTreatment.Identifier",
        "valueIdentifier": {
          "system": "urn:oid:2.16.840.1.113883.2.4.3.11.999.77.1.1",
          "value": "MBH_300_CorrectieOpToediening"
        }
      } ],
      "identifier": [ {
        "system": "urn:oid:2.16.840.1.113883.2.4.3.11.999.77.18629005.1",
        "value": "MBH_300_CorrectieOpToediening_verkeerdehoeveelheid_MTD"
      } ],
      "status": "unknown",
      "category": {
        "coding": [ {
          "system": "http://snomed.info/sct",
          "code": "18629005",
          "display": "toediening van medicatie"
        } ]
      },
      "medicationReference": {
        "reference": "urn:uuid:c195331d-6aaa-11ec-0000-020000000000",
        "type": "Medication",
        "display": "PANTOZOL TABLET MSR 20MG"
      },
      "subject": {
        "reference": "urn:uuid:1c84b21e-6b37-11ec-0000-020000000000",
        "type": "Patient",
        "display": "Patient, J. de XXX_Luzac"
      },
      "supportingInformation": [ {
        "type": "MedicationDispense",
        "identifier": {
          "system": "urn:oid:2.16.840.1.113883.2.4.3.11.999.77.422037009.1",
          "value": "MBH_300_CorrectieOpToediening_TA"
        },
        "display": "relatie naar toedieningsafspraak met identificatie: MBH_300_CorrectieOpToediening_TA || 2.16.840.1.113883.2.4.3.11.999.77.422037009.1"
      } ],
      "effectiveDateTime": "${DATE, T, D, -3}T07:45:00+02:00",
      "performer": [ {
        "actor": {
          "reference": "urn:uuid:8d3d1824-6aeb-11ec-0000-020000000000",
          "type": "PractitionerRole",
          "display": "Healthcare professional (role), Tanja de Bakker, Trombosediensten, Trombosedienst Ons Dorp"
        }
      } ],
      "dosage": {
        "route": {
          "coding": [ {
            "system": "urn:oid:2.16.840.1.113883.2.4.4.9",
            "code": "9",
            "display": "Oraal"
          } ]
        },
        "dose": {
          "extension": [ {
            "url": "http://hl7.org/fhir/StructureDefinition/iso21090-PQ-translation",
            "valueQuantity": {
              "value": 1,
              "unit": "Stuk",
              "system": "urn:oid:2.16.840.1.113883.2.4.4.1.900.2",
              "code": "245"
            }
          } ],
          "value": 1,
          "unit": "Stuk",
          "system": "http://unitsofmeasure.org",
          "code": "1"
        }
      }
    },
    "request": {
      "method": "POST",
      "url": "MedicationAdministration"
    }
  }, {
    "fullUrl": "urn:uuid:a419685d-6b1b-11ec-0000-020000000000",
    "resource": {
      "resourceType": "MedicationAdministration",
      "meta": {
        "profile": [ "http://nictiz.nl/fhir/StructureDefinition/mp-MedicationAdministration2" ]
      },
      "text": {
        "status": "extensions",
        "div": "<div xmlns=\"http://www.w3.org/1999/xhtml\">\n            <table>\n              <caption>Medicatietoediening. Subject: Patient, J. de XXX_Luzac. Id: MBH_300_CorrectieOpToediening_correctieopregistratie_MTD (urn:oid:2.16.840.1.113883.2.4.3.11.999.77.18629005.1), Categorie: <span title=\"toediening van medicatie (18629005 - SNOMED CT)\">toediening van medicatie</span>, Status: onbekend</caption>\n              <tbody>\n                <tr>\n                  <th>Medicatie</th>\n                  <td>PANTOZOL TABLET MSR 20MG</td>\n                </tr>\n                <tr>\n                  <th>Datum/tijd</th>\n                  <td>${DATE, T, D, -3}T07:48:00+02:00</td>\n                </tr>\n                <tr>\n                  <th>Ondersteunende informatie</th>\n                  <td>relatie naar toedieningsafspraak met identificatie: MBH_300_CorrectieOpToediening_TA || 2.16.840.1.113883.2.4.3.11.999.77.422037009.1 (Id: MBH_300_CorrectieOpToediening_TA (urn:oid:2.16.840.1.113883.2.4.3.11.999.77.422037009.1))</td>\n                </tr>\n                <tr>\n                  <th>Dosering</th>\n                  <td>\n                    <div>Toedieningsweg: <span title=\"Oraal (9 - G-Standaard thesaurus subtabel 0007)\">Oraal</span>\n                    </div>\n                    <div>Dosering: -1 Stuk</div>\n                  </td>\n                </tr>\n              </tbody>\n            </table>\n          </div>"
      },
      "extension": [ {
        "url": "http://nictiz.nl/fhir/StructureDefinition/ext-RegistrationDateTime",
        "valueDateTime": "${DATE, T, D, -3}T07:48:00+02:00"
      }, {
        "url": "http://nictiz.nl/fhir/StructureDefinition/ext-MedicationAdministration2.ReasonForDeviation",
        "valueCodeableConcept": {
          "coding": [ {
            "system": "http://snomed.info/sct",
            "code": "159691000146109",
            "display": "foutieve registratie van medicatie"
          } ]
        }
      }, {
        "url": "http://nictiz.nl/fhir/StructureDefinition/ext-PharmaceuticalTreatment.Identifier",
        "valueIdentifier": {
          "system": "urn:oid:2.16.840.1.113883.2.4.3.11.999.77.1.1",
          "value": "MBH_300_CorrectieOpToediening"
        }
      } ],
      "identifier": [ {
        "system": "urn:oid:2.16.840.1.113883.2.4.3.11.999.77.18629005.1",
        "value": "MBH_300_CorrectieOpToediening_correctieopregistratie_MTD"
      } ],
      "status": "unknown",
      "category": {
        "coding": [ {
          "system": "http://snomed.info/sct",
          "code": "18629005",
          "display": "toediening van medicatie"
        } ]
      },
      "medicationReference": {
        "reference": "urn:uuid:c195331d-6aaa-11ec-0000-020000000000",
        "type": "Medication",
        "display": "PANTOZOL TABLET MSR 20MG"
      },
      "subject": {
        "reference": "urn:uuid:1c84b21e-6b37-11ec-0000-020000000000",
        "type": "Patient",
        "display": "Patient, J. de XXX_Luzac"
      },
      "supportingInformation": [ {
        "type": "MedicationDispense",
        "identifier": {
          "system": "urn:oid:2.16.840.1.113883.2.4.3.11.999.77.422037009.1",
          "value": "MBH_300_CorrectieOpToediening_TA"
        },
        "display": "relatie naar toedieningsafspraak met identificatie: MBH_300_CorrectieOpToediening_TA || 2.16.840.1.113883.2.4.3.11.999.77.422037009.1"
      } ],
      "effectiveDateTime": "${DATE, T, D, -3}T07:48:00+02:00",
      "performer": [ {
        "actor": {
          "reference": "urn:uuid:8d3d1824-6aeb-11ec-0000-020000000000",
          "type": "PractitionerRole",
          "display": "Healthcare professional (role), Tanja de Bakker, Trombosediensten, Trombosedienst Ons Dorp"
        }
      } ],
      "dosage": {
        "route": {
          "coding": [ {
            "system": "urn:oid:2.16.840.1.113883.2.4.4.9",
            "code": "9",
            "display": "Oraal"
          } ]
        },
        "dose": {
          "extension": [ {
            "url": "http://hl7.org/fhir/StructureDefinition/iso21090-PQ-translation",
            "valueQuantity": {
              "value": -1,
              "unit": "Stuk",
              "system": "urn:oid:2.16.840.1.113883.2.4.4.1.900.2",
              "code": "245"
            }
          } ],
          "value": -1,
          "unit": "Stuk",
          "system": "http://unitsofmeasure.org",
          "code": "1"
        }
      }
    },
    "request": {
      "method": "POST",
      "url": "MedicationAdministration"
    }
  }, {
    "fullUrl": "urn:uuid:c9fc385d-6b2e-11ec-0000-020000000000",
    "resource": {
      "resourceType": "MedicationAdministration",
      "meta": {
        "profile": [ "http://nictiz.nl/fhir/StructureDefinition/mp-MedicationAdministration2" ]
      },
      "text": {
        "status": "extensions",
        "div": "<div xmlns=\"http://www.w3.org/1999/xhtml\">\n            <table>\n              <caption>Medicatietoediening. Subject: Patient, J. de XXX_Luzac. Id: MBH_300_CorrectieOpToediening_CorrecteHoeveelheid_MTD (urn:oid:2.16.840.1.113883.2.4.3.11.999.77.18629005.1), Categorie: <span title=\"toediening van medicatie (18629005 - SNOMED CT)\">toediening van medicatie</span>, Status: onbekend</caption>\n              <tfoot>\n                <tr>\n                  <td colspan=\"2\">Correctie op verkeerd geregistreerde hoeveelheid</td>\n                </tr>\n              </tfoot>\n              <tbody>\n                <tr>\n                  <th>Medicatie</th>\n                  <td>PANTOZOL TABLET MSR 20MG</td>\n                </tr>\n                <tr>\n                  <th>Datum/tijd</th>\n                  <td>${DATE, T, D, -3}T07:49:00+02:00</td>\n                </tr>\n                <tr>\n                  <th>Ondersteunende informatie</th>\n                  <td>relatie naar toedieningsafspraak met identificatie: MBH_300_CorrectieOpToediening_TA || 2.16.840.1.113883.2.4.3.11.999.77.422037009.1 (Id: MBH_300_CorrectieOpToediening_TA (urn:oid:2.16.840.1.113883.2.4.3.11.999.77.422037009.1))</td>\n                </tr>\n                <tr>\n                  <th>Dosering</th>\n                  <td>\n                    <div>Toedieningsweg: <span title=\"Oraal (9 - G-Standaard thesaurus subtabel 0007)\">Oraal</span>\n                    </div>\n                    <div>Dosering: 2 Stuks</div>\n                  </td>\n                </tr>\n              </tbody>\n            </table>\n          </div>"
      },
      "extension": [ {
        "url": "http://nictiz.nl/fhir/StructureDefinition/ext-RegistrationDateTime",
        "valueDateTime": "${DATE, T, D, -3}T07:49:00+02:00"
      }, {
        "url": "http://nictiz.nl/fhir/StructureDefinition/ext-PharmaceuticalTreatment.Identifier",
        "valueIdentifier": {
          "system": "urn:oid:2.16.840.1.113883.2.4.3.11.999.77.1.1",
          "value": "MBH_300_CorrectieOpToediening"
        }
      } ],
      "identifier": [ {
        "system": "urn:oid:2.16.840.1.113883.2.4.3.11.999.77.18629005.1",
        "value": "MBH_300_CorrectieOpToediening_CorrecteHoeveelheid_MTD"
      } ],
      "status": "unknown",
      "category": {
        "coding": [ {
          "system": "http://snomed.info/sct",
          "code": "18629005",
          "display": "toediening van medicatie"
        } ]
      },
      "medicationReference": {
        "reference": "urn:uuid:c195331d-6aaa-11ec-0000-020000000000",
        "type": "Medication",
        "display": "PANTOZOL TABLET MSR 20MG"
      },
      "subject": {
        "reference": "urn:uuid:1c84b21e-6b37-11ec-0000-020000000000",
        "type": "Patient",
        "display": "Patient, J. de XXX_Luzac"
      },
      "supportingInformation": [ {
        "type": "MedicationDispense",
        "identifier": {
          "system": "urn:oid:2.16.840.1.113883.2.4.3.11.999.77.422037009.1",
          "value": "MBH_300_CorrectieOpToediening_TA"
        },
        "display": "relatie naar toedieningsafspraak met identificatie: MBH_300_CorrectieOpToediening_TA || 2.16.840.1.113883.2.4.3.11.999.77.422037009.1"
      } ],
      "effectiveDateTime": "${DATE, T, D, -3}T07:49:00+02:00",
      "performer": [ {
        "actor": {
          "reference": "urn:uuid:8d3d1824-6aeb-11ec-0000-020000000000",
          "type": "PractitionerRole",
          "display": "Healthcare professional (role), Tanja de Bakker, Trombosediensten, Trombosedienst Ons Dorp"
        }
      } ],
      "note": [ {
        "text": "Correctie op verkeerd geregistreerde hoeveelheid"
      } ],
      "dosage": {
        "route": {
          "coding": [ {
            "system": "urn:oid:2.16.840.1.113883.2.4.4.9",
            "code": "9",
            "display": "Oraal"
          } ]
        },
        "dose": {
          "extension": [ {
            "url": "http://hl7.org/fhir/StructureDefinition/iso21090-PQ-translation",
            "valueQuantity": {
              "value": 2,
              "unit": "Stuks",
              "system": "urn:oid:2.16.840.1.113883.2.4.4.1.900.2",
              "code": "245"
            }
          } ],
          "value": 2,
          "unit": "Stuks",
          "system": "http://unitsofmeasure.org",
          "code": "1"
        }
      }
    },
    "request": {
      "method": "POST",
      "url": "MedicationAdministration"
    }
  }, {
    "fullUrl": "urn:uuid:1c84b21e-6b37-11ec-0000-020000000000",
    "resource": {
      "resourceType": "Patient",
      "meta": {
        "profile": [ "http://nictiz.nl/fhir/StructureDefinition/nl-core-Patient" ]
      },
      "text": {
        "status": "extensions",
        "div": "<div xmlns=\"http://www.w3.org/1999/xhtml\">\n            <div>Id 999900778 (BSN), <span title=\"Naamsamenstelling: Eigennaam\">J. de XXX_Luzac</span>, Vrouw, 24 oktober 1985</div>\n          </div>"
      },
      "identifier": [ {
        "system": "http://fhir.nl/fhir/NamingSystem/bsn",
        "value": "999900778"
      } ],
      "name": [ {
        "extension": [ {
          "url": "http://hl7.org/fhir/StructureDefinition/humanname-assembly-order",
          "valueCode": "NL1"
        } ],
        "use": "official",
        "text": "J. de XXX_Luzac",
        "family": "de XXX_Luzac",
        "_family": {
          "extension": [ {
            "url": "http://hl7.org/fhir/StructureDefinition/humanname-own-prefix",
            "valueString": "de"
          }, {
            "url": "http://hl7.org/fhir/StructureDefinition/humanname-own-name",
            "valueString": "XXX_Luzac"
          } ]
        },
        "given": [ "J." ],
        "_given": [ {
          "extension": [ {
            "url": "http://hl7.org/fhir/StructureDefinition/iso21090-EN-qualifier",
            "valueCode": "IN"
          } ]
        } ]
      } ],
      "gender": "female",
      "_gender": {
        "extension": [ {
          "url": "http://nictiz.nl/fhir/StructureDefinition/ext-CodeSpecification",
          "valueCodeableConcept": {
            "coding": [ {
              "system": "http://terminology.hl7.org/CodeSystem/v3-AdministrativeGender",
              "code": "F",
              "display": "Vrouw"
            } ]
          }
        } ]
      },
      "birthDate": "1985-10-24"
    },
    "request": {
      "method": "POST",
      "url": "Patient"
    }
  }, {
    "fullUrl": "urn:uuid:a757282e-6b76-11ec-0000-020000000000",
    "resource": {
      "resourceType": "PractitionerRole",
      "meta": {
        "profile": [ "http://nictiz.nl/fhir/StructureDefinition/nl-core-HealthProfessional-PractitionerRole" ]
      },
      "text": {
        "status": "extensions",
        "div": "<div xmlns=\"http://www.w3.org/1999/xhtml\">\n            <table>\n              <caption>Zorgverlenerrol. </caption>\n              <tbody>\n                <tr>\n                  <th>Zorgverlener</th>\n                  <td>\n                    <div>Healthcare professional (person), Jantien Toedien</div>\n                    <div>Healthcare provider (organization), Thuiszorg Om en Bij</div>\n                  </td>\n                </tr>\n                <tr>\n                  <th>Specialisme</th>\n                  <td>\n                    <span title=\"Verpleegkundigen, niet nader gespecificeerd (9100 - AGB-medisch specialisme)\">Verpleegkundigen, niet nader gespecificeerd</span>\n                  </td>\n                </tr>\n              </tbody>\n            </table>\n          </div>"
      },
      "practitioner": {
        "reference": "urn:uuid:f1e8c824-6b20-11ec-0000-020000000000",
        "type": "Practitioner",
        "display": "Healthcare professional (person), Jantien Toedien"
      },
      "organization": {
        "reference": "urn:uuid:b0d9956e-6a9d-11ec-0000-020000000000",
        "type": "Organization",
        "display": "Healthcare provider (organization), Thuiszorg Om en Bij"
      },
      "specialty": [ {
        "coding": [ {
          "system": "urn:oid:2.16.840.1.113883.2.4.6.7",
          "version": "2020-10-23T00:00:00",
          "code": "9100",
          "display": "Verpleegkundigen, niet nader gespecificeerd"
        } ]
      } ]
    },
    "request": {
      "method": "POST",
      "url": "PractitionerRole"
    }
  }, {
    "fullUrl": "urn:uuid:f1e8c824-6b20-11ec-0000-020000000000",
    "resource": {
      "resourceType": "Practitioner",
      "meta": {
        "profile": [ "http://nictiz.nl/fhir/StructureDefinition/nl-core-HealthProfessional-Practitioner" ]
      },
      "text": {
        "status": "extensions",
        "div": "<div xmlns=\"http://www.w3.org/1999/xhtml\">\n            <div>Id 222220000 (UZI-NR-PERS), Jantien Toedien</div>\n          </div>"
      },
      "identifier": [ {
        "system": "http://fhir.nl/fhir/NamingSystem/uzi-nr-pers",
        "value": "222220000"
      } ],
      "name": [ {
        "use": "official",
        "text": "Jantien Toedien",
        "family": "Toedien",
        "_family": {
          "extension": [ {
            "url": "http://hl7.org/fhir/StructureDefinition/humanname-own-name",
            "valueString": "Toedien"
          } ]
        },
        "given": [ "Jantien" ],
        "_given": [ {
          "extension": [ {
            "url": "http://hl7.org/fhir/StructureDefinition/iso21090-EN-qualifier",
            "valueCode": "BR"
          } ]
        } ]
      } ]
    },
    "request": {
      "method": "POST",
      "url": "Practitioner"
    }
  }, {
    "fullUrl": "urn:uuid:8d3d1824-6aeb-11ec-0000-020000000000",
    "resource": {
      "resourceType": "PractitionerRole",
      "meta": {
        "profile": [ "http://nictiz.nl/fhir/StructureDefinition/nl-core-HealthProfessional-PractitionerRole" ]
      },
      "text": {
        "status": "extensions",
        "div": "<div xmlns=\"http://www.w3.org/1999/xhtml\">\n            <table>\n              <caption>Zorgverlenerrol. </caption>\n              <tbody>\n                <tr>\n                  <th>Zorgverlener</th>\n                  <td>\n                    <div>Healthcare professional (person), Tanja de Bakker</div>\n                    <div>Healthcare provider (organization), Trombosedienst Ons Dorp</div>\n                  </td>\n                </tr>\n                <tr>\n                  <th>Specialisme</th>\n                  <td>\n                    <span title=\"Trombosediensten (3400 - AGB-medisch specialisme)\">Trombosediensten</span>\n                  </td>\n                </tr>\n              </tbody>\n            </table>\n          </div>"
      },
      "practitioner": {
        "reference": "urn:uuid:7cac7558-6b5d-11ec-0000-020000000000",
        "type": "Practitioner",
        "display": "Healthcare professional (person), Tanja de Bakker"
      },
      "organization": {
        "reference": "urn:uuid:5bc4856e-6b7b-11ec-0000-020000000000",
        "type": "Organization",
        "display": "Healthcare provider (organization), Trombosedienst Ons Dorp"
      },
      "specialty": [ {
        "coding": [ {
          "system": "urn:oid:2.16.840.1.113883.2.4.6.7",
          "version": "2020-10-23T00:00:00",
          "code": "3400",
          "display": "Trombosediensten"
        } ]
      } ]
    },
    "request": {
      "method": "POST",
      "url": "PractitionerRole"
    }
  }, {
    "fullUrl": "urn:uuid:7cac7558-6b5d-11ec-0000-020000000000",
    "resource": {
      "resourceType": "Practitioner",
      "meta": {
        "profile": [ "http://nictiz.nl/fhir/StructureDefinition/nl-core-HealthProfessional-Practitioner" ]
      },
      "text": {
        "status": "extensions",
        "div": "<div xmlns=\"http://www.w3.org/1999/xhtml\">\n            <div>Id 222221111 (UZI-NR-PERS), Tanja de Bakker</div>\n          </div>"
      },
      "identifier": [ {
        "system": "http://fhir.nl/fhir/NamingSystem/uzi-nr-pers",
        "value": "222221111"
      } ],
      "name": [ {
        "use": "official",
        "text": "Tanja de Bakker",
        "family": "de Bakker",
        "_family": {
          "extension": [ {
            "url": "http://hl7.org/fhir/StructureDefinition/humanname-own-prefix",
            "valueString": "de"
          }, {
            "url": "http://hl7.org/fhir/StructureDefinition/humanname-own-name",
            "valueString": "Bakker"
          } ]
        },
        "given": [ "Tanja" ],
        "_given": [ {
          "extension": [ {
            "url": "http://hl7.org/fhir/StructureDefinition/iso21090-EN-qualifier",
            "valueCode": "BR"
          } ]
        } ]
      } ]
    },
    "request": {
      "method": "POST",
      "url": "Practitioner"
    }
  }, {
    "fullUrl": "urn:uuid:b0d9956e-6a9d-11ec-0000-020000000000",
    "resource": {
      "resourceType": "Organization",
      "meta": {
        "profile": [ "http://nictiz.nl/fhir/StructureDefinition/nl-core-HealthcareProvider-Organization" ]
      },
      "text": {
        "status": "extensions",
        "div": "<div xmlns=\"http://www.w3.org/1999/xhtml\">\n            <table>\n              <caption>Organisatie. Id: 11110000 (URA)</caption>\n              <tbody>\n                <tr>\n                  <th>Naam</th>\n                  <td>Thuiszorg Om en Bij</td>\n                </tr>\n                <tr>\n                  <th>Type</th>\n                  <td>\n                    <span title=\"Thuiszorg (T2 - organization-type)\">Thuiszorg</span>\n                  </td>\n                </tr>\n              </tbody>\n            </table>\n          </div>"
      },
      "identifier": [ {
        "system": "http://fhir.nl/fhir/NamingSystem/ura",
        "value": "11110000"
      } ],
      "type": [ {
        "coding": [ {
          "system": "http://nictiz.nl/fhir/NamingSystem/organization-type",
          "code": "T2",
          "display": "Thuiszorg"
        } ]
      } ],
      "name": "Thuiszorg Om en Bij"
    },
    "request": {
      "method": "POST",
      "url": "Organization"
    }
  }, {
    "fullUrl": "urn:uuid:5bc4856e-6b7b-11ec-0000-020000000000",
    "resource": {
      "resourceType": "Organization",
      "meta": {
        "profile": [ "http://nictiz.nl/fhir/StructureDefinition/nl-core-HealthcareProvider-Organization" ]
      },
      "text": {
        "status": "extensions",
        "div": "<div xmlns=\"http://www.w3.org/1999/xhtml\">\n            <table>\n              <caption>Organisatie. Id: 11112222 (URA)</caption>\n              <tbody>\n                <tr>\n                  <th>Naam</th>\n                  <td>Trombosedienst Ons Dorp</td>\n                </tr>\n                <tr>\n                  <th>Type</th>\n                  <td>\n                    <span title=\"Trombosediensten (3400 - AGB-medisch specialisme)\">Trombosediensten</span>\n                  </td>\n                </tr>\n                <tr>\n                  <th>Adres</th>\n                  <td>Kerkstraat 28 d, 1332GH Ons Dorp (Werk)</td>\n                </tr>\n              </tbody>\n            </table>\n          </div>"
      },
      "identifier": [ {
        "system": "http://fhir.nl/fhir/NamingSystem/ura",
        "value": "11112222"
      } ],
      "type": [ {
        "coding": [ {
          "system": "urn:oid:2.16.840.1.113883.2.4.6.7",
          "version": "2020-10-23T00:00:00",
          "code": "3400",
          "display": "Trombosediensten"
        } ]
      } ],
      "name": "Trombosedienst Ons Dorp",
      "address": [ {
        "extension": [ {
          "url": "http://nictiz.nl/fhir/StructureDefinition/ext-AddressInformation.AddressType",
          "valueCodeableConcept": {
            "coding": [ {
              "system": "http://terminology.hl7.org/CodeSystem/v3-AddressUse",
              "code": "WP",
              "display": "Werkadres"
            } ]
          }
        } ],
        "use": "work",
        "line": [ "Kerkstraat 28 d" ],
        "_line": [ {
          "extension": [ {
            "url": "http://hl7.org/fhir/StructureDefinition/iso21090-ADXP-streetName",
            "valueString": "Kerkstraat"
          }, {
            "url": "http://hl7.org/fhir/StructureDefinition/iso21090-ADXP-houseNumber",
            "valueString": "28"
          }, {
            "url": "http://hl7.org/fhir/StructureDefinition/iso21090-ADXP-buildingNumberSuffix",
            "valueString": "d"
          } ]
        } ],
        "city": "Ons Dorp",
        "postalCode": "1332GH"
      } ]
    },
    "request": {
      "method": "POST",
      "url": "Organization"
    }
  }, {
    "fullUrl": "urn:uuid:65e39e04-6b43-11ec-0000-020000000000",
    "resource": {
      "resourceType": "Medication",
      "meta": {
        "profile": [ "http://nictiz.nl/fhir/StructureDefinition/mp-PharmaceuticalProduct" ]
      },
      "text": {
        "status": "extensions",
        "div": "<div xmlns=\"http://www.w3.org/1999/xhtml\">\n            <table>\n              <tbody>\n                <tr>\n                  <th>Code</th>\n                  <td>\n                    <span title=\"AMLODIPINE PCH TABLET 5MG (ALS BESILAAT) (2202182 - G-Standaard HPK)\">AMLODIPINE PCH TABLET 5MG (ALS BESILAAT)</span>\n                  </td>\n                </tr>\n              </tbody>\n            </table>\n          </div>"
      },
      "code": {
        "coding": [ {
          "system": "urn:oid:2.16.840.1.113883.2.4.4.7",
          "code": "2202182",
          "display": "AMLODIPINE PCH TABLET 5MG (ALS BESILAAT)",
          "userSelected": true
        }, {
          "system": "urn:oid:2.16.840.1.113883.2.4.4.10",
          "code": "123315",
          "display": "AMLODIPINE TABLET 5MG"
        }, {
          "system": "urn:oid:2.16.840.1.113883.2.4.4.1",
          "code": "155616",
          "display": "AMLODIPINE TABLET 5MG"
        } ],
        "text": "AMLODIPINE PCH TABLET 5MG (ALS BESILAAT)"
      }
    },
    "request": {
      "method": "POST",
      "url": "Medication"
    }
  }, {
    "fullUrl": "urn:uuid:c195331d-6aaa-11ec-0000-020000000000",
    "resource": {
      "resourceType": "Medication",
      "meta": {
        "profile": [ "http://nictiz.nl/fhir/StructureDefinition/mp-PharmaceuticalProduct" ]
      },
      "text": {
        "status": "extensions",
        "div": "<div xmlns=\"http://www.w3.org/1999/xhtml\">\n            <table>\n              <tbody>\n                <tr>\n                  <th>Code</th>\n                  <td>\n                    <span title=\"PANTOZOL TABLET MSR 20MG (1163094 - G-Standaard HPK)\">PANTOZOL TABLET MSR 20MG</span>\n                  </td>\n                </tr>\n              </tbody>\n            </table>\n          </div>"
      },
      "code": {
        "coding": [ {
          "system": "urn:oid:2.16.840.1.113883.2.4.4.7",
          "code": "1163094",
          "display": "PANTOZOL TABLET MSR 20MG",
          "userSelected": true
        }, {
          "system": "urn:oid:2.16.840.1.113883.2.4.4.10",
          "code": "52272",
          "display": "PANTOPRAZOL TABLET MSR 20MG"
        }, {
          "system": "urn:oid:2.16.840.1.113883.2.4.4.1",
          "code": "106275",
          "display": "PANTOPRAZOL TABLET MSR 20MG"
        } ],
        "text": "PANTOZOL TABLET MSR 20MG"
      }
    },
    "request": {
      "method": "POST",
      "url": "Medication"
    }
  }, {
    "fullUrl": "urn:uuid:ad7bdb1d-6af8-11ec-0000-020000000000",
    "resource": {
      "resourceType": "Medication",
      "meta": {
        "profile": [ "http://nictiz.nl/fhir/StructureDefinition/mp-PharmaceuticalProduct" ]
      },
      "text": {
        "status": "extensions",
        "div": "<div xmlns=\"http://www.w3.org/1999/xhtml\">\n            <table>\n              <tbody>\n                <tr>\n                  <th>Code</th>\n                  <td>\n                    <span title=\"PROPRANOLOL HCL SANDOZ TABLET 80MG (603678 - G-Standaard HPK)\">PROPRANOLOL HCL SANDOZ TABLET 80MG</span>\n                  </td>\n                </tr>\n              </tbody>\n            </table>\n          </div>"
      },
      "code": {
        "coding": [ {
          "system": "urn:oid:2.16.840.1.113883.2.4.4.7",
          "code": "603678",
          "display": "PROPRANOLOL HCL SANDOZ TABLET 80MG",
          "userSelected": true
        }, {
          "system": "urn:oid:2.16.840.1.113883.2.4.4.10",
          "code": "5738",
          "display": "PROPRANOLOL TABLET 80MG"
        }, {
          "system": "urn:oid:2.16.840.1.113883.2.4.4.1",
          "code": "16322",
          "display": "PROPRANOLOL TABLET 80MG"
        } ],
        "text": "PROPRANOLOL HCL SANDOZ TABLET 80MG"
      }
    },
    "request": {
      "method": "POST",
      "url": "Medication"
    }
  }, {
    "fullUrl": "urn:uuid:578367e9-6ab0-11ec-0000-020000000000",
    "resource": {
      "resourceType": "Medication",
      "meta": {
        "profile": [ "http://nictiz.nl/fhir/StructureDefinition/mp-PharmaceuticalProduct" ]
      },
      "text": {
        "status": "extensions",
        "div": "<div xmlns=\"http://www.w3.org/1999/xhtml\">\n            <table>\n              <tbody>\n                <tr>\n                  <th>Code</th>\n                  <td>\n                    <span title=\"TRIMETHOPRIM CF TABLET 300MG (1089838 - G-Standaard HPK)\">TRIMETHOPRIM CF TABLET 300MG</span>\n                  </td>\n                </tr>\n              </tbody>\n            </table>\n          </div>"
      },
      "code": {
        "coding": [ {
          "system": "urn:oid:2.16.840.1.113883.2.4.4.7",
          "code": "1089838",
          "display": "TRIMETHOPRIM CF TABLET 300MG",
          "userSelected": true
        }, {
          "system": "urn:oid:2.16.840.1.113883.2.4.4.10",
          "code": "16020",
          "display": "TRIMETHOPRIM TABLET"
        }, {
          "system": "urn:oid:2.16.840.1.113883.2.4.4.1",
          "code": "39136",
          "display": "TRIMETHOPRIM TABLET 300MG"
        } ],
        "text": "TRIMETHOPRIM CF TABLET 300MG"
      }
    },
    "request": {
      "method": "POST",
      "url": "Medication"
    }
  } ]
}