{
  "resourceType": "Bundle",
  "id": "mgsets-mp-smg-tst-MVE-Scenarioset7-v30",
  "type": "transaction",
  "entry": [ {
    "fullUrl": "urn:uuid:a54141a7-6b55-11ec-0000-020000000000",
    "resource": {
      "resourceType": "MedicationDispense",
      "meta": {
        "profile": [ "http://nictiz.nl/fhir/StructureDefinition/mp-MedicationDispense" ]
      },
      "text": {
        "status": "extensions",
        "div": "<div xmlns=\"http://www.w3.org/1999/xhtml\">\n            <table>\n              <caption>MedicationDispense. Subject: Patient, G. XXX_Hess. Id: MBH_300_magistraalalleingredienten_MVE (urn:oid:2.16.840.1.113883.2.4.3.11.999.77.373784005.1), Categorie: <span title=\"verstrekken van medicatie (373784005 - SNOMED CT)\">verstrekken van medicatie</span>, Status: voltooid<span style=\"display: block;\">Uitvoerende: Healthcare provider (organization), Apotheek De Gulle Gaper</span>\n              </caption>\n              <tbody>\n                <tr>\n                  <th>Gebaseerd op</th>\n                  <td>relatie naar verstrekkingsverzoek met identificatie: MBH_300_magistraalalleingredienten_VV || 2.16.840.1.113883.2.4.3.11.999.77.52711000146108.1 (Id: MBH_300_magistraalalleingredienten_VV (urn:oid:2.16.840.1.113883.2.4.3.11.999.77.52711000146108.1))</td>\n                </tr>\n                <tr>\n                  <th>Medicatie</th>\n                  <td>overig</td>\n                </tr>\n                <tr>\n                  <th>Hoeveelheid</th>\n                  <td>100 milliliter</td>\n                </tr>\n                <tr>\n                  <th>Datum overhandigd</th>\n                  <td>${DATE, T, D, +0}T13:00:00+02:00</td>\n                </tr>\n              </tbody>\n            </table>\n          </div>"
      },
      "extension": [ {
        "url": "http://nictiz.nl/fhir/StructureDefinition/ext-PharmaceuticalTreatment.Identifier",
        "valueIdentifier": {
          "system": "urn:oid:2.16.840.1.113883.2.4.3.11.999.77.1.1",
          "value": "MBH_300_magistraalalleingredienten"
        }
      } ],
      "identifier": [ {
        "system": "urn:oid:2.16.840.1.113883.2.4.3.11.999.77.373784005.1",
        "value": "MBH_300_magistraalalleingredienten_MVE"
      } ],
      "status": "completed",
      "category": {
        "coding": [ {
          "system": "http://snomed.info/sct",
          "code": "373784005",
          "display": "verstrekken van medicatie"
        } ]
      },
      "medicationReference": {
        "reference": "urn:uuid:3f743d1d-6ae4-11ec-0000-020000000000",
        "type": "Medication",
        "display": "overig"
      },
      "subject": {
        "reference": "urn:uuid:abfa2efe-6b61-11ec-0000-020000000000",
        "type": "Patient",
        "display": "Patient, G. XXX_Hess"
      },
      "performer": [ {
        "actor": {
          "reference": "urn:uuid:98d231d8-6b0c-11ec-0000-020000000000",
          "type": "Organization",
          "display": "Healthcare provider (organization), Apotheek De Gulle Gaper"
        }
      } ],
      "authorizingPrescription": [ {
        "type": "MedicationRequest",
        "identifier": {
          "system": "urn:oid:2.16.840.1.113883.2.4.3.11.999.77.52711000146108.1",
          "value": "MBH_300_magistraalalleingredienten_VV"
        },
        "display": "relatie naar verstrekkingsverzoek met identificatie: MBH_300_magistraalalleingredienten_VV || 2.16.840.1.113883.2.4.3.11.999.77.52711000146108.1"
      } ],
      "quantity": {
        "extension": [ {
          "url": "http://hl7.org/fhir/StructureDefinition/iso21090-PQ-translation",
          "valueQuantity": {
            "value": 100,
            "unit": "milliliter",
            "system": "urn:oid:2.16.840.1.113883.2.4.4.1.900.2",
            "code": "233"
          }
        } ],
        "value": 100,
        "unit": "milliliter",
        "system": "http://unitsofmeasure.org",
        "code": "ml"
      },
      "whenHandedOver": "${DATE, T, D, +0}T13:00:00+02:00"
    },
    "request": {
      "method": "POST",
      "url": "MedicationDispense"
    }
  }, {
    "fullUrl": "urn:uuid:bdd101a7-6b1f-11ec-0000-020000000000",
    "resource": {
      "resourceType": "MedicationDispense",
      "meta": {
        "profile": [ "http://nictiz.nl/fhir/StructureDefinition/mp-MedicationDispense" ]
      },
      "text": {
        "status": "extensions",
        "div": "<div xmlns=\"http://www.w3.org/1999/xhtml\">\n            <table>\n              <caption>MedicationDispense. Subject: Patient, G. XXX_Hess. Id: MBH_300_magistraalactieveingredient_MVE (urn:oid:2.16.840.1.113883.2.4.3.11.999.77.373784005.1), Categorie: <span title=\"verstrekken van medicatie (373784005 - SNOMED CT)\">verstrekken van medicatie</span>, Status: voltooid<span style=\"display: block;\">Uitvoerende: Healthcare provider (organization), Apotheek De Gulle Gaper</span>\n              </caption>\n              <tbody>\n                <tr>\n                  <th>Gebaseerd op</th>\n                  <td>relatie naar verstrekkingsverzoek met identificatie: MBH_300_magistraalactieveingredient_VV || 2.16.840.1.113883.2.4.3.11.999.77.52711000146108.1 (Id: MBH_300_magistraalactieveingredient_VV (urn:oid:2.16.840.1.113883.2.4.3.11.999.77.52711000146108.1))</td>\n                </tr>\n                <tr>\n                  <th>Medicatie</th>\n                  <td>overig</td>\n                </tr>\n                <tr>\n                  <th>Hoeveelheid</th>\n                  <td>100 gram</td>\n                </tr>\n                <tr>\n                  <th>Datum overhandigd</th>\n                  <td>${DATE, T, D, +0}T13:05:00+02:00</td>\n                </tr>\n              </tbody>\n            </table>\n          </div>"
      },
      "extension": [ {
        "url": "http://nictiz.nl/fhir/StructureDefinition/ext-PharmaceuticalTreatment.Identifier",
        "valueIdentifier": {
          "system": "urn:oid:2.16.840.1.113883.2.4.3.11.999.77.1.1",
          "value": "MBH_300_magistraalactieveingredient"
        }
      } ],
      "identifier": [ {
        "system": "urn:oid:2.16.840.1.113883.2.4.3.11.999.77.373784005.1",
        "value": "MBH_300_magistraalactieveingredient_MVE"
      } ],
      "status": "completed",
      "category": {
        "coding": [ {
          "system": "http://snomed.info/sct",
          "code": "373784005",
          "display": "verstrekken van medicatie"
        } ]
      },
      "medicationReference": {
        "reference": "urn:uuid:8c8bfb04-6b21-11ec-0000-020000000000",
        "type": "Medication",
        "display": "overig"
      },
      "subject": {
        "reference": "urn:uuid:abfa2efe-6b61-11ec-0000-020000000000",
        "type": "Patient",
        "display": "Patient, G. XXX_Hess"
      },
      "performer": [ {
        "actor": {
          "reference": "urn:uuid:98d231d8-6b0c-11ec-0000-020000000000",
          "type": "Organization",
          "display": "Healthcare provider (organization), Apotheek De Gulle Gaper"
        }
      } ],
      "authorizingPrescription": [ {
        "type": "MedicationRequest",
        "identifier": {
          "system": "urn:oid:2.16.840.1.113883.2.4.3.11.999.77.52711000146108.1",
          "value": "MBH_300_magistraalactieveingredient_VV"
        },
        "display": "relatie naar verstrekkingsverzoek met identificatie: MBH_300_magistraalactieveingredient_VV || 2.16.840.1.113883.2.4.3.11.999.77.52711000146108.1"
      } ],
      "quantity": {
        "extension": [ {
          "url": "http://hl7.org/fhir/StructureDefinition/iso21090-PQ-translation",
          "valueQuantity": {
            "value": 100,
            "unit": "gram",
            "system": "urn:oid:2.16.840.1.113883.2.4.4.1.900.2",
            "code": "215"
          }
        } ],
        "value": 100,
        "unit": "gram",
        "system": "http://unitsofmeasure.org",
        "code": "g"
      },
      "whenHandedOver": "${DATE, T, D, +0}T13:05:00+02:00"
    },
    "request": {
      "method": "POST",
      "url": "MedicationDispense"
    }
  }, {
    "fullUrl": "urn:uuid:486483dd-6b3b-11ec-0000-020000000000",
    "resource": {
      "resourceType": "MedicationDispense",
      "meta": {
        "profile": [ "http://nictiz.nl/fhir/StructureDefinition/mp-MedicationDispense" ]
      },
      "text": {
        "status": "extensions",
        "div": "<div xmlns=\"http://www.w3.org/1999/xhtml\">\n            <table>\n              <caption>MedicationDispense. Subject: Patient, G. XXX_Hess. Id: MBH_300_magistraal90miljoennr_MVE (urn:oid:2.16.840.1.113883.2.4.3.11.999.77.373784005.1), Categorie: <span title=\"verstrekken van medicatie (373784005 - SNOMED CT)\">verstrekken van medicatie</span>, Status: voltooid<span style=\"display: block;\">Uitvoerende: Healthcare provider (organization), Apotheek De Gulle Gaper</span>\n              </caption>\n              <tbody>\n                <tr>\n                  <th>Gebaseerd op</th>\n                  <td>relatie naar verstrekkingsverzoek met identificatie: MBH_300_magistraal90miljoennr_VV || 2.16.840.1.113883.2.4.3.11.999.77.52711000146108.1 (Id: MBH_300_magistraal90miljoennr_VV (urn:oid:2.16.840.1.113883.2.4.3.11.999.77.52711000146108.1))</td>\n                </tr>\n                <tr>\n                  <th>Medicatie</th>\n                  <td>Eigen artikel: ureumzalf</td>\n                </tr>\n                <tr>\n                  <th>Hoeveelheid</th>\n                  <td>100 gram</td>\n                </tr>\n                <tr>\n                  <th>Datum overhandigd</th>\n                  <td>${DATE, T, D, +0}T13:08:00+02:00</td>\n                </tr>\n              </tbody>\n            </table>\n          </div>"
      },
      "extension": [ {
        "url": "http://nictiz.nl/fhir/StructureDefinition/ext-PharmaceuticalTreatment.Identifier",
        "valueIdentifier": {
          "system": "urn:oid:2.16.840.1.113883.2.4.3.11.999.77.1.1",
          "value": "MBH_300_magistraal90miljoennr"
        }
      } ],
      "identifier": [ {
        "system": "urn:oid:2.16.840.1.113883.2.4.3.11.999.77.373784005.1",
        "value": "MBH_300_magistraal90miljoennr_MVE"
      } ],
      "status": "completed",
      "category": {
        "coding": [ {
          "system": "http://snomed.info/sct",
          "code": "373784005",
          "display": "verstrekken van medicatie"
        } ]
      },
      "medicationReference": {
        "reference": "urn:uuid:f74cdd04-6b18-11ec-0000-020000000000",
        "type": "Medication",
        "display": "Eigen artikel: ureumzalf"
      },
      "subject": {
        "reference": "urn:uuid:abfa2efe-6b61-11ec-0000-020000000000",
        "type": "Patient",
        "display": "Patient, G. XXX_Hess"
      },
      "performer": [ {
        "actor": {
          "reference": "urn:uuid:98d231d8-6b0c-11ec-0000-020000000000",
          "type": "Organization",
          "display": "Healthcare provider (organization), Apotheek De Gulle Gaper"
        }
      } ],
      "authorizingPrescription": [ {
        "type": "MedicationRequest",
        "identifier": {
          "system": "urn:oid:2.16.840.1.113883.2.4.3.11.999.77.52711000146108.1",
          "value": "MBH_300_magistraal90miljoennr_VV"
        },
        "display": "relatie naar verstrekkingsverzoek met identificatie: MBH_300_magistraal90miljoennr_VV || 2.16.840.1.113883.2.4.3.11.999.77.52711000146108.1"
      } ],
      "quantity": {
        "extension": [ {
          "url": "http://hl7.org/fhir/StructureDefinition/iso21090-PQ-translation",
          "valueQuantity": {
            "value": 100,
            "unit": "gram",
            "system": "urn:oid:2.16.840.1.113883.2.4.4.1.900.2",
            "code": "215"
          }
        } ],
        "value": 100,
        "unit": "gram",
        "system": "http://unitsofmeasure.org",
        "code": "g"
      },
      "whenHandedOver": "${DATE, T, D, +0}T13:08:00+02:00"
    },
    "request": {
      "method": "POST",
      "url": "MedicationDispense"
    }
  }, {
    "fullUrl": "urn:uuid:abfa2efe-6b61-11ec-0000-020000000000",
    "resource": {
      "resourceType": "Patient",
      "meta": {
        "profile": [ "http://nictiz.nl/fhir/StructureDefinition/nl-core-Patient" ]
      },
      "text": {
        "status": "extensions",
        "div": "<div xmlns=\"http://www.w3.org/1999/xhtml\">\n            <div>Id 999900614 (BSN), <span title=\"Naamsamenstelling: Eigennaam\">G. XXX_Hess</span>, Man, 3 november 1963</div>\n          </div>"
      },
      "identifier": [ {
        "system": "http://fhir.nl/fhir/NamingSystem/bsn",
        "value": "999900614"
      } ],
      "name": [ {
        "extension": [ {
          "url": "http://hl7.org/fhir/StructureDefinition/humanname-assembly-order",
          "valueCode": "NL1"
        } ],
        "use": "official",
        "text": "G. XXX_Hess",
        "family": "XXX_Hess",
        "_family": {
          "extension": [ {
            "url": "http://hl7.org/fhir/StructureDefinition/humanname-own-name",
            "valueString": "XXX_Hess"
          } ]
        },
        "given": [ "G." ],
        "_given": [ {
          "extension": [ {
            "url": "http://hl7.org/fhir/StructureDefinition/iso21090-EN-qualifier",
            "valueCode": "IN"
          } ]
        } ]
      } ],
      "gender": "male",
      "_gender": {
        "extension": [ {
          "url": "http://nictiz.nl/fhir/StructureDefinition/ext-CodeSpecification",
          "valueCodeableConcept": {
            "coding": [ {
              "system": "http://terminology.hl7.org/CodeSystem/v3-AdministrativeGender",
              "code": "M",
              "display": "Man"
            } ]
          }
        } ]
      },
      "birthDate": "1963-11-03"
    },
    "request": {
      "method": "POST",
      "url": "Patient"
    }
  }, {
    "fullUrl": "urn:uuid:98d231d8-6b0c-11ec-0000-020000000000",
    "resource": {
      "resourceType": "Organization",
      "meta": {
        "profile": [ "http://nictiz.nl/fhir/StructureDefinition/nl-core-HealthcareProvider-Organization" ]
      },
      "text": {
        "status": "extensions",
        "div": "<div xmlns=\"http://www.w3.org/1999/xhtml\">\n            <table>\n              <caption>Organisatie. Id: 01236578 (URA)</caption>\n              <tbody>\n                <tr>\n                  <th>Naam</th>\n                  <td>Apotheek De Gulle Gaper</td>\n                </tr>\n              </tbody>\n            </table>\n          </div>"
      },
      "identifier": [ {
        "system": "http://fhir.nl/fhir/NamingSystem/ura",
        "value": "01236578"
      } ],
      "name": "Apotheek De Gulle Gaper"
    },
    "request": {
      "method": "POST",
      "url": "Organization"
    }
  }, {
    "fullUrl": "urn:uuid:3f743d1d-6ae4-11ec-0000-020000000000",
    "resource": {
      "resourceType": "Medication",
      "meta": {
        "profile": [ "http://nictiz.nl/fhir/StructureDefinition/mp-PharmaceuticalProduct" ]
      },
      "text": {
        "status": "extensions",
        "div": "<div xmlns=\"http://www.w3.org/1999/xhtml\">\n            <table>\n              <tbody>\n                <tr>\n                  <th>Code</th>\n                  <td>\n                    <span title=\"overig (OTH - http://terminology.hl7.org/CodeSystem/v3-NullFlavor)\">overig</span>\n                  </td>\n                  <th>Ingredients</th>\n                  <td>\n                    <ul>\n                      <li>\n                        <span title=\"UREUM ZALF 10% FAGRON (1042467 - G-Standaard HPK)\">UREUM ZALF 10% FAGRON</span>\n                      </li>\n                      <li>\n                        <span title=\"EUCERINE MET WATER FAGRON (1516981 - G-Standaard HPK)\">EUCERINE MET WATER FAGRON</span>\n                      </li>\n                    </ul>\n                  </td>\n                </tr>\n              </tbody>\n            </table>\n          </div>"
      },
      "extension": [ {
        "url": "http://nictiz.nl/fhir/StructureDefinition/ext-PharmaceuticalProduct.Description",
        "valueString": "Titel: Ureum 10% in eucerine cum aqua 100gr           Regel: UREUM 10gr           Regel: EUCERINE MET WATER FAGRON ad 100gr"
      } ],
      "code": {
        "coding": [ {
          "system": "http://terminology.hl7.org/CodeSystem/v3-NullFlavor",
          "code": "OTH",
          "display": "overig"
        } ],
        "text": "Ureum 10% in eucerine cum aqua 100gr"
      },
      "ingredient": [ {
        "itemCodeableConcept": {
          "coding": [ {
            "system": "urn:oid:2.16.840.1.113883.2.4.4.7",
            "code": "1042467",
            "display": "UREUM ZALF 10% FAGRON"
          } ]
        },
        "strength": {
          "numerator": {
            "extension": [ {
              "url": "http://hl7.org/fhir/StructureDefinition/iso21090-PQ-translation",
              "valueQuantity": {
                "value": 10,
                "unit": "gram",
                "system": "urn:oid:2.16.840.1.113883.2.4.4.1.900.2",
                "code": "215"
              }
            } ],
            "value": 10,
            "unit": "gram",
            "system": "http://unitsofmeasure.org",
            "code": "g"
          },
          "denominator": {
            "extension": [ {
              "url": "http://hl7.org/fhir/StructureDefinition/iso21090-PQ-translation",
              "valueQuantity": {
                "value": 100,
                "unit": "gram",
                "system": "urn:oid:2.16.840.1.113883.2.4.4.1.900.2",
                "code": "215"
              }
            } ],
            "value": 100,
            "unit": "gram",
            "system": "http://unitsofmeasure.org",
            "code": "g"
          }
        }
      }, {
        "itemCodeableConcept": {
          "coding": [ {
            "system": "urn:oid:2.16.840.1.113883.2.4.4.7",
            "code": "1516981",
            "display": "EUCERINE MET WATER FAGRON"
          } ]
        },
        "strength": {
          "numerator": {
            "extension": [ {
              "url": "http://hl7.org/fhir/StructureDefinition/iso21090-PQ-translation",
              "valueQuantity": {
                "value": 90,
                "unit": "gram",
                "system": "urn:oid:2.16.840.1.113883.2.4.4.1.900.2",
                "code": "215"
              }
            } ],
            "value": 90,
            "unit": "gram",
            "system": "http://unitsofmeasure.org",
            "code": "g"
          },
          "denominator": {
            "extension": [ {
              "url": "http://hl7.org/fhir/StructureDefinition/iso21090-PQ-translation",
              "valueQuantity": {
                "value": 100,
                "unit": "gram",
                "system": "urn:oid:2.16.840.1.113883.2.4.4.1.900.2",
                "code": "215"
              }
            } ],
            "value": 100,
            "unit": "gram",
            "system": "http://unitsofmeasure.org",
            "code": "g"
          }
        }
      } ]
    },
    "request": {
      "method": "POST",
      "url": "Medication"
    }
  }, {
    "fullUrl": "urn:uuid:8c8bfb04-6b21-11ec-0000-020000000000",
    "resource": {
      "resourceType": "Medication",
      "meta": {
        "profile": [ "http://nictiz.nl/fhir/StructureDefinition/mp-PharmaceuticalProduct" ]
      },
      "text": {
        "status": "extensions",
        "div": "<div xmlns=\"http://www.w3.org/1999/xhtml\">\n            <table>\n              <tbody>\n                <tr>\n                  <th>Code</th>\n                  <td>\n                    <span title=\"overig (OTH - http://terminology.hl7.org/CodeSystem/v3-NullFlavor)\">overig</span>\n                  </td>\n                  <th>Ingredients</th>\n                  <td>\n                    <ul>\n                      <li>\n                        <span title=\"CETOMACROGOLCREME FNA (457590 - G-Standaard HPK)\">CETOMACROGOLCREME FNA</span>\n                      </li>\n                    </ul>\n                  </td>\n                </tr>\n              </tbody>\n            </table>\n          </div>"
      },
      "extension": [ {
        "url": "http://nictiz.nl/fhir/StructureDefinition/ext-PharmaceuticalProduct.Description",
        "valueString": "Titel: Vaseline 20% in cetomacrogolcrème FNA Regel 1: cetomacrogolcreme 80 gr"
      } ],
      "code": {
        "coding": [ {
          "system": "http://terminology.hl7.org/CodeSystem/v3-NullFlavor",
          "code": "OTH",
          "display": "overig"
        } ],
        "text": "Vaseline 20% in cetomacrogolcrème FNA"
      },
      "ingredient": [ {
        "itemCodeableConcept": {
          "coding": [ {
            "system": "urn:oid:2.16.840.1.113883.2.4.4.7",
            "code": "457590",
            "display": "CETOMACROGOLCREME FNA"
          } ]
        },
        "strength": {
          "numerator": {
            "extension": [ {
              "url": "http://hl7.org/fhir/StructureDefinition/iso21090-PQ-translation",
              "valueQuantity": {
                "value": 80,
                "unit": "gram",
                "system": "urn:oid:2.16.840.1.113883.2.4.4.1.900.2",
                "code": "215"
              }
            } ],
            "value": 80,
            "unit": "gram",
            "system": "http://unitsofmeasure.org",
            "code": "g"
          },
          "denominator": {
            "extension": [ {
              "url": "http://hl7.org/fhir/StructureDefinition/iso21090-PQ-translation",
              "valueQuantity": {
                "value": 100,
                "unit": "gram",
                "system": "urn:oid:2.16.840.1.113883.2.4.4.1.900.2",
                "code": "215"
              }
            } ],
            "value": 100,
            "unit": "gram",
            "system": "http://unitsofmeasure.org",
            "code": "g"
          }
        }
      } ]
    },
    "request": {
      "method": "POST",
      "url": "Medication"
    }
  }, {
    "fullUrl": "urn:uuid:f74cdd04-6b18-11ec-0000-020000000000",
    "resource": {
      "resourceType": "Medication",
      "meta": {
        "profile": [ "http://nictiz.nl/fhir/StructureDefinition/mp-PharmaceuticalProduct" ]
      },
      "text": {
        "status": "extensions",
        "div": "<div xmlns=\"http://www.w3.org/1999/xhtml\">\n            <table>\n              <tbody>\n                <tr>\n                  <th>Code</th>\n                  <td>\n                    <span title=\"Eigen artikel: ureumzalf (90000001 - 2.16.840.1.113883.2.4.3.11.9999.77.90000000.1.1111)\">Eigen artikel: ureumzalf</span>\n                  </td>\n                  <th>Ingredients</th>\n                  <td>\n                    <ul>\n                      <li>\n                        <span title=\"UREUM ZALF 10% FAGRON (1042467 - G-Standaard HPK)\">UREUM ZALF 10% FAGRON</span>\n                      </li>\n                    </ul>\n                  </td>\n                </tr>\n              </tbody>\n            </table>\n          </div>"
      },
      "extension": [ {
        "url": "http://nictiz.nl/fhir/StructureDefinition/ext-PharmaceuticalProduct.Description",
        "valueString": "Titel: Ureum 10% in eucerine cum aqua 100gr           Regel: UREUM 10gr           Regel: EUCERINE MET WATER FAGRON ad 100gr"
      } ],
      "code": {
        "coding": [ {
          "system": "urn:oid:2.16.840.1.113883.2.4.3.11.9999.77.90000000.1.1111",
          "code": "90000001",
          "display": "Eigen artikel: ureumzalf"
        } ],
        "text": "Ureum 10% in eucerine cum aqua 100gr"
      },
      "ingredient": [ {
        "itemCodeableConcept": {
          "coding": [ {
            "system": "urn:oid:2.16.840.1.113883.2.4.4.7",
            "code": "1042467",
            "display": "UREUM ZALF 10% FAGRON"
          } ]
        },
        "strength": {
          "numerator": {
            "extension": [ {
              "url": "http://hl7.org/fhir/StructureDefinition/iso21090-PQ-translation",
              "valueQuantity": {
                "value": 10,
                "unit": "gram",
                "system": "urn:oid:2.16.840.1.113883.2.4.4.1.900.2",
                "code": "215"
              }
            } ],
            "value": 10,
            "unit": "gram",
            "system": "http://unitsofmeasure.org",
            "code": "g"
          },
          "denominator": {
            "extension": [ {
              "url": "http://hl7.org/fhir/StructureDefinition/iso21090-PQ-translation",
              "valueQuantity": {
                "value": 100,
                "unit": "gram",
                "system": "urn:oid:2.16.840.1.113883.2.4.4.1.900.2",
                "code": "215"
              }
            } ],
            "value": 100,
            "unit": "gram",
            "system": "http://unitsofmeasure.org",
            "code": "g"
          }
        }
      } ]
    },
    "request": {
      "method": "POST",
      "url": "Medication"
    }
  } ]
}