{
  "resourceType": "Bundle",
  "id": "mgsets-mp-smg-tst-WDS-Scenarioset6-v30",
  "type": "transaction",
  "entry": [ {
    "fullUrl": "urn:uuid:6ade434d-6b1f-11ec-0000-020000000000",
    "resource": {
      "resourceType": "MedicationRequest",
      "meta": {
        "profile": [ "http://nictiz.nl/fhir/StructureDefinition/mp-VariableDosingRegimen" ]
      },
      "text": {
        "status": "extensions",
        "div": "<div xmlns=\"http://www.w3.org/1999/xhtml\">\n            <table>\n              <caption>MedicationRequest. Subject: Patient, M. XXX_Niesing. Id: MBH_300_WDS_dagdeel_wds (urn:oid:2.16.840.1.113883.2.4.3.11.999.77.632.1), Categorie: <span title=\"optimaliseren van dosering van medicatie (395067002 - SNOMED CT)\">optimaliseren van dosering van medicatie</span>, Status: onbekend<span style=\"display: block;\">Intentie: aanvraag</span>\n                <span style=\"display: block;\">Aangevraagd door: Healthcare professional (role), Tanja de Bakker, Trombosediensten, Trombosedienst Ons Dorp</span>\n              </caption>\n              <tfoot>\n                <tr>\n                  <td colspan=\"2\">INR-Waarde: 1,8</td>\n                </tr>\n              </tfoot>\n              <tbody>\n                <tr>\n                  <th>Gebaseerd op</th>\n                  <td>relatie naar medicatieafspraak met identificatie: MBH_300_WDS_dagdeel_MA || 2.16.840.1.113883.2.4.3.11.999.77.16076005.1 (Id: MBH_300_WDS_dagdeel_MA (urn:oid:2.16.840.1.113883.2.4.3.11.999.77.16076005.1))</td>\n                </tr>\n                <tr>\n                  <th>Medicatie</th>\n                  <td>FENPROCOUMON TABLET 3MG</td>\n                </tr>\n                <tr>\n                  <th>Doseerinstructie</th>\n                  <td>\n                    <div>Volgnummer: 1</div>\n                    <div>Timing: <div>1 dag, EVE</div>\n                    </div>\n                    <div>Toedieningsweg: <span title=\"Oraal (9 - G-Standaard thesaurus subtabel 0007)\">Oraal</span>\n                    </div>\n                    <div>Dosering: doseAndRate TODO</div>\n                  </td>\n                </tr>\n                <tr>\n                  <th>Doseerinstructie</th>\n                  <td>\n                    <div>Volgnummer: 2</div>\n                    <div>Timing: <div>1 dag, EVE</div>\n                    </div>\n                    <div>Toedieningsweg: <span title=\"Oraal (9 - G-Standaard thesaurus subtabel 0007)\">Oraal</span>\n                    </div>\n                    <div>Dosering: doseAndRate TODO</div>\n                  </td>\n                </tr>\n                <tr>\n                  <th>Doseerinstructie</th>\n                  <td>\n                    <div>Volgnummer: 3</div>\n                    <div>Timing: <div>1 dag, EVE</div>\n                    </div>\n                    <div>Toedieningsweg: <span title=\"Oraal (9 - G-Standaard thesaurus subtabel 0007)\">Oraal</span>\n                    </div>\n                    <div>Dosering: doseAndRate TODO</div>\n                  </td>\n                </tr>\n                <tr>\n                  <th>Doseerinstructie</th>\n                  <td>\n                    <div>Volgnummer: 4</div>\n                    <div>Timing: <div>1 dag, EVE</div>\n                    </div>\n                    <div>Toedieningsweg: <span title=\"Oraal (9 - G-Standaard thesaurus subtabel 0007)\">Oraal</span>\n                    </div>\n                    <div>Dosering: doseAndRate TODO</div>\n                  </td>\n                </tr>\n                <tr>\n                  <th>Doseerinstructie</th>\n                  <td>\n                    <div>Volgnummer: 5</div>\n                    <div>Timing: <div>1 uur, EVE</div>\n                    </div>\n                    <div>Toedieningsweg: <span title=\"Oraal (9 - G-Standaard thesaurus subtabel 0007)\">Oraal</span>\n                    </div>\n                    <div>Dosering: doseAndRate TODO</div>\n                  </td>\n                </tr>\n                <tr>\n                  <th>Doseerinstructie</th>\n                  <td>\n                    <div>Volgnummer: 6</div>\n                    <div>Timing: <div>1 dag, EVE</div>\n                    </div>\n                    <div>Toedieningsweg: <span title=\"Oraal (9 - G-Standaard thesaurus subtabel 0007)\">Oraal</span>\n                    </div>\n                    <div>Dosering: doseAndRate TODO</div>\n                  </td>\n                </tr>\n                <tr>\n                  <th>Doseerinstructie</th>\n                  <td>\n                    <div>Volgnummer: 7</div>\n                    <div>Timing: <div>1 dag, EVE</div>\n                    </div>\n                    <div>Toedieningsweg: <span title=\"Oraal (9 - G-Standaard thesaurus subtabel 0007)\">Oraal</span>\n                    </div>\n                    <div>Dosering: doseAndRate TODO</div>\n                  </td>\n                </tr>\n                <tr>\n                  <th>Doseerinstructie</th>\n                  <td>\n                    <div>Volgnummer: 8</div>\n                    <div>Timing: <div>1 dag, EVE</div>\n                    </div>\n                    <div>Toedieningsweg: <span title=\"Oraal (9 - G-Standaard thesaurus subtabel 0007)\">Oraal</span>\n                    </div>\n                    <div>Dosering: doseAndRate TODO</div>\n                  </td>\n                </tr>\n              </tbody>\n            </table>\n          </div>"
      },
      "extension": [ {
        "url": "http://nictiz.nl/fhir/StructureDefinition/ext-PharmaceuticalTreatment.Identifier",
        "valueIdentifier": {
          "system": "urn:oid:2.16.840.1.113883.2.4.3.11.999.77.1.1",
          "value": "MBH_300_WDS_dagdeel"
        }
      }, {
        "url": "http://nictiz.nl/fhir/StructureDefinition/ext-RegistrationDateTime",
        "valueDateTime": "${DATE, T, D, -1}T08:15:00+02:00"
      }, {
        "url": "http://nictiz.nl/fhir/StructureDefinition/ext-RenderedDosageInstruction",
        "valueString": "wordt gegenereerd"
      }, {
        "url": "http://nictiz.nl/fhir/StructureDefinition/ext-TimeInterval.Period",
        "valuePeriod": {
          "extension": [ {
            "url": "http://nictiz.nl/fhir/StructureDefinition/ext-TimeInterval.Duration",
            "valueDuration": {
              "value": 8,
              "unit": "dag",
              "system": "http://unitsofmeasure.org",
              "code": "d"
            }
          } ],
          "start": "${DATE, T, D, +0}"
        }
      } ],
      "identifier": [ {
        "system": "urn:oid:2.16.840.1.113883.2.4.3.11.999.77.632.1",
        "value": "MBH_300_WDS_dagdeel_wds"
      } ],
      "status": "unknown",
      "intent": "order",
      "category": [ {
        "coding": [ {
          "system": "http://snomed.info/sct",
          "code": "395067002",
          "display": "optimaliseren van dosering van medicatie"
        } ]
      } ],
      "medicationReference": {
        "reference": "urn:uuid:4c6ca204-6b1b-11ec-0000-020000000000",
        "type": "Medication",
        "display": "FENPROCOUMON TABLET 3MG"
      },
      "subject": {
        "reference": "urn:uuid:5b11573e-6aa2-11ec-0000-020000000000",
        "type": "Patient",
        "display": "Patient, M. XXX_Niesing"
      },
      "requester": {
        "reference": "urn:uuid:8d3d1824-6aeb-11ec-0000-020000000000",
        "type": "PractitionerRole",
        "display": "Healthcare professional (role), Tanja de Bakker, Trombosediensten, Trombosedienst Ons Dorp"
      },
      "basedOn": [ {
        "type": "MedicationRequest",
        "identifier": {
          "system": "urn:oid:2.16.840.1.113883.2.4.3.11.999.77.16076005.1",
          "value": "MBH_300_WDS_dagdeel_MA"
        },
        "display": "relatie naar medicatieafspraak met identificatie: MBH_300_WDS_dagdeel_MA || 2.16.840.1.113883.2.4.3.11.999.77.16076005.1"
      } ],
      "note": [ {
        "text": "INR-Waarde: 1,8"
      } ],
      "dosageInstruction": [ {
        "sequence": 1,
        "timing": {
          "repeat": {
            "boundsDuration": {
              "value": 1,
              "unit": "dag",
              "system": "http://unitsofmeasure.org",
              "code": "d"
            },
            "when": [ "EVE" ]
          }
        },
        "route": {
          "coding": [ {
            "system": "urn:oid:2.16.840.1.113883.2.4.4.9",
            "code": "9",
            "display": "Oraal"
          } ]
        },
        "doseAndRate": [ {
          "doseQuantity": {
            "extension": [ {
              "url": "http://hl7.org/fhir/StructureDefinition/iso21090-PQ-translation",
              "valueQuantity": {
                "value": 2,
                "unit": "stuk",
                "system": "urn:oid:2.16.840.1.113883.2.4.4.1.900.2",
                "code": "245"
              }
            } ],
            "value": 2,
            "unit": "stuk",
            "system": "http://unitsofmeasure.org",
            "code": "1"
          }
        } ]
      }, {
        "sequence": 2,
        "timing": {
          "repeat": {
            "boundsDuration": {
              "value": 1,
              "unit": "dag",
              "system": "http://unitsofmeasure.org",
              "code": "d"
            },
            "when": [ "EVE" ]
          }
        },
        "route": {
          "coding": [ {
            "system": "urn:oid:2.16.840.1.113883.2.4.4.9",
            "code": "9",
            "display": "Oraal"
          } ]
        },
        "doseAndRate": [ {
          "doseQuantity": {
            "extension": [ {
              "url": "http://hl7.org/fhir/StructureDefinition/iso21090-PQ-translation",
              "valueQuantity": {
                "value": 2,
                "unit": "stuk",
                "system": "urn:oid:2.16.840.1.113883.2.4.4.1.900.2",
                "code": "245"
              }
            } ],
            "value": 2,
            "unit": "stuk",
            "system": "http://unitsofmeasure.org",
            "code": "1"
          }
        } ]
      }, {
        "sequence": 3,
        "timing": {
          "repeat": {
            "boundsDuration": {
              "value": 1,
              "unit": "dag",
              "system": "http://unitsofmeasure.org",
              "code": "d"
            },
            "when": [ "EVE" ]
          }
        },
        "route": {
          "coding": [ {
            "system": "urn:oid:2.16.840.1.113883.2.4.4.9",
            "code": "9",
            "display": "Oraal"
          } ]
        },
        "doseAndRate": [ {
          "doseQuantity": {
            "extension": [ {
              "url": "http://hl7.org/fhir/StructureDefinition/iso21090-PQ-translation",
              "valueQuantity": {
                "value": 2,
                "unit": "stuk",
                "system": "urn:oid:2.16.840.1.113883.2.4.4.1.900.2",
                "code": "245"
              }
            } ],
            "value": 2,
            "unit": "stuk",
            "system": "http://unitsofmeasure.org",
            "code": "1"
          }
        } ]
      }, {
        "sequence": 4,
        "timing": {
          "repeat": {
            "boundsDuration": {
              "value": 1,
              "unit": "dag",
              "system": "http://unitsofmeasure.org",
              "code": "d"
            },
            "when": [ "EVE" ]
          }
        },
        "route": {
          "coding": [ {
            "system": "urn:oid:2.16.840.1.113883.2.4.4.9",
            "code": "9",
            "display": "Oraal"
          } ]
        },
        "doseAndRate": [ {
          "doseQuantity": {
            "extension": [ {
              "url": "http://hl7.org/fhir/StructureDefinition/iso21090-PQ-translation",
              "valueQuantity": {
                "value": 2,
                "unit": "stuk",
                "system": "urn:oid:2.16.840.1.113883.2.4.4.1.900.2",
                "code": "245"
              }
            } ],
            "value": 2,
            "unit": "stuk",
            "system": "http://unitsofmeasure.org",
            "code": "1"
          }
        } ]
      }, {
        "sequence": 5,
        "timing": {
          "repeat": {
            "boundsDuration": {
              "value": 1,
              "unit": "uur",
              "system": "http://unitsofmeasure.org",
              "code": "h"
            },
            "when": [ "EVE" ]
          }
        },
        "route": {
          "coding": [ {
            "system": "urn:oid:2.16.840.1.113883.2.4.4.9",
            "code": "9",
            "display": "Oraal"
          } ]
        },
        "doseAndRate": [ {
          "doseQuantity": {
            "extension": [ {
              "url": "http://hl7.org/fhir/StructureDefinition/iso21090-PQ-translation",
              "valueQuantity": {
                "value": 2,
                "unit": "stuk",
                "system": "urn:oid:2.16.840.1.113883.2.4.4.1.900.2",
                "code": "245"
              }
            } ],
            "value": 2,
            "unit": "stuk",
            "system": "http://unitsofmeasure.org",
            "code": "1"
          }
        } ]
      }, {
        "sequence": 6,
        "timing": {
          "repeat": {
            "boundsDuration": {
              "value": 1,
              "unit": "dag",
              "system": "http://unitsofmeasure.org",
              "code": "d"
            },
            "when": [ "EVE" ]
          }
        },
        "route": {
          "coding": [ {
            "system": "urn:oid:2.16.840.1.113883.2.4.4.9",
            "code": "9",
            "display": "Oraal"
          } ]
        },
        "doseAndRate": [ {
          "doseQuantity": {
            "extension": [ {
              "url": "http://hl7.org/fhir/StructureDefinition/iso21090-PQ-translation",
              "valueQuantity": {
                "value": 2,
                "unit": "stuk",
                "system": "urn:oid:2.16.840.1.113883.2.4.4.1.900.2",
                "code": "245"
              }
            } ],
            "value": 2,
            "unit": "stuk",
            "system": "http://unitsofmeasure.org",
            "code": "1"
          }
        } ]
      }, {
        "sequence": 7,
        "timing": {
          "repeat": {
            "boundsDuration": {
              "value": 1,
              "unit": "dag",
              "system": "http://unitsofmeasure.org",
              "code": "d"
            },
            "when": [ "EVE" ]
          }
        },
        "route": {
          "coding": [ {
            "system": "urn:oid:2.16.840.1.113883.2.4.4.9",
            "code": "9",
            "display": "Oraal"
          } ]
        },
        "doseAndRate": [ {
          "doseQuantity": {
            "extension": [ {
              "url": "http://hl7.org/fhir/StructureDefinition/iso21090-PQ-translation",
              "valueQuantity": {
                "value": 2,
                "unit": "stuk",
                "system": "urn:oid:2.16.840.1.113883.2.4.4.1.900.2",
                "code": "245"
              }
            } ],
            "value": 2,
            "unit": "stuk",
            "system": "http://unitsofmeasure.org",
            "code": "1"
          }
        } ]
      }, {
        "sequence": 8,
        "timing": {
          "repeat": {
            "boundsDuration": {
              "value": 1,
              "unit": "dag",
              "system": "http://unitsofmeasure.org",
              "code": "d"
            },
            "when": [ "EVE" ]
          }
        },
        "route": {
          "coding": [ {
            "system": "urn:oid:2.16.840.1.113883.2.4.4.9",
            "code": "9",
            "display": "Oraal"
          } ]
        },
        "doseAndRate": [ {
          "doseQuantity": {
            "extension": [ {
              "url": "http://hl7.org/fhir/StructureDefinition/iso21090-PQ-translation",
              "valueQuantity": {
                "value": 2,
                "unit": "stuk",
                "system": "urn:oid:2.16.840.1.113883.2.4.4.1.900.2",
                "code": "245"
              }
            } ],
            "value": 2,
            "unit": "stuk",
            "system": "http://unitsofmeasure.org",
            "code": "1"
          }
        } ]
      } ]
    },
    "request": {
      "method": "POST",
      "url": "MedicationRequest"
    }
  }, {
    "fullUrl": "urn:uuid:5b11573e-6aa2-11ec-0000-020000000000",
    "resource": {
      "resourceType": "Patient",
      "meta": {
        "profile": [ "http://nictiz.nl/fhir/StructureDefinition/nl-core-Patient" ]
      },
      "text": {
        "status": "extensions",
        "div": "<div xmlns=\"http://www.w3.org/1999/xhtml\">\n            <div>Id 999900845 (BSN), <span title=\"Naamsamenstelling: Eigennaam\">M. XXX_Niesing</span>, Man, 29 oktober 1985</div>\n          </div>"
      },
      "identifier": [ {
        "system": "http://fhir.nl/fhir/NamingSystem/bsn",
        "value": "999900845"
      } ],
      "name": [ {
        "extension": [ {
          "url": "http://hl7.org/fhir/StructureDefinition/humanname-assembly-order",
          "valueCode": "NL1"
        } ],
        "use": "official",
        "text": "M. XXX_Niesing",
        "family": "XXX_Niesing",
        "_family": {
          "extension": [ {
            "url": "http://hl7.org/fhir/StructureDefinition/humanname-own-name",
            "valueString": "XXX_Niesing"
          } ]
        },
        "given": [ "M." ],
        "_given": [ {
          "extension": [ {
            "url": "http://hl7.org/fhir/StructureDefinition/iso21090-EN-qualifier",
            "valueCode": "IN"
          } ]
        } ]
      } ],
      "gender": "male",
      "_gender": {
        "extension": [ {
          "url": "http://nictiz.nl/fhir/StructureDefinition/ext-CodeSpecification",
          "valueCodeableConcept": {
            "coding": [ {
              "system": "http://terminology.hl7.org/CodeSystem/v3-AdministrativeGender",
              "code": "M",
              "display": "Man"
            } ]
          }
        } ]
      },
      "birthDate": "1985-10-29"
    },
    "request": {
      "method": "POST",
      "url": "Patient"
    }
  }, {
    "fullUrl": "urn:uuid:8d3d1824-6aeb-11ec-0000-020000000000",
    "resource": {
      "resourceType": "PractitionerRole",
      "meta": {
        "profile": [ "http://nictiz.nl/fhir/StructureDefinition/nl-core-HealthProfessional-PractitionerRole" ]
      },
      "text": {
        "status": "extensions",
        "div": "<div xmlns=\"http://www.w3.org/1999/xhtml\">\n            <table>\n              <caption>Zorgverlenerrol. </caption>\n              <tbody>\n                <tr>\n                  <th>Zorgverlener</th>\n                  <td>\n                    <div>Healthcare professional (person), Tanja de Bakker</div>\n                    <div>Healthcare provider (organization), Trombosedienst Ons Dorp</div>\n                  </td>\n                </tr>\n                <tr>\n                  <th>Specialisme</th>\n                  <td>\n                    <span title=\"Trombosediensten (3400 - AGB-medisch specialisme)\">Trombosediensten</span>\n                  </td>\n                </tr>\n              </tbody>\n            </table>\n          </div>"
      },
      "practitioner": {
        "reference": "urn:uuid:7cac7558-6b5d-11ec-0000-020000000000",
        "type": "Practitioner",
        "display": "Healthcare professional (person), Tanja de Bakker"
      },
      "organization": {
        "reference": "urn:uuid:5bc4856e-6b7b-11ec-0000-020000000000",
        "type": "Organization",
        "display": "Healthcare provider (organization), Trombosedienst Ons Dorp"
      },
      "specialty": [ {
        "coding": [ {
          "system": "urn:oid:2.16.840.1.113883.2.4.6.7",
          "version": "2020-10-23T00:00:00",
          "code": "3400",
          "display": "Trombosediensten"
        } ]
      } ]
    },
    "request": {
      "method": "POST",
      "url": "PractitionerRole"
    }
  }, {
    "fullUrl": "urn:uuid:7cac7558-6b5d-11ec-0000-020000000000",
    "resource": {
      "resourceType": "Practitioner",
      "meta": {
        "profile": [ "http://nictiz.nl/fhir/StructureDefinition/nl-core-HealthProfessional-Practitioner" ]
      },
      "text": {
        "status": "extensions",
        "div": "<div xmlns=\"http://www.w3.org/1999/xhtml\">\n            <div>Id 222221111 (UZI-NR-PERS), Tanja de Bakker</div>\n          </div>"
      },
      "identifier": [ {
        "system": "http://fhir.nl/fhir/NamingSystem/uzi-nr-pers",
        "value": "222221111"
      } ],
      "name": [ {
        "use": "official",
        "text": "Tanja de Bakker",
        "family": "de Bakker",
        "_family": {
          "extension": [ {
            "url": "http://hl7.org/fhir/StructureDefinition/humanname-own-prefix",
            "valueString": "de"
          }, {
            "url": "http://hl7.org/fhir/StructureDefinition/humanname-own-name",
            "valueString": "Bakker"
          } ]
        },
        "given": [ "Tanja" ],
        "_given": [ {
          "extension": [ {
            "url": "http://hl7.org/fhir/StructureDefinition/iso21090-EN-qualifier",
            "valueCode": "BR"
          } ]
        } ]
      } ]
    },
    "request": {
      "method": "POST",
      "url": "Practitioner"
    }
  }, {
    "fullUrl": "urn:uuid:5bc4856e-6b7b-11ec-0000-020000000000",
    "resource": {
      "resourceType": "Organization",
      "meta": {
        "profile": [ "http://nictiz.nl/fhir/StructureDefinition/nl-core-HealthcareProvider-Organization" ]
      },
      "text": {
        "status": "extensions",
        "div": "<div xmlns=\"http://www.w3.org/1999/xhtml\">\n            <table>\n              <caption>Organisatie. Id: 11112222 (URA)</caption>\n              <tbody>\n                <tr>\n                  <th>Naam</th>\n                  <td>Trombosedienst Ons Dorp</td>\n                </tr>\n                <tr>\n                  <th>Type</th>\n                  <td>\n                    <span title=\"Trombosediensten (3400 - AGB-medisch specialisme)\">Trombosediensten</span>\n                  </td>\n                </tr>\n                <tr>\n                  <th>Adres</th>\n                  <td>Kerkstraat 28 d, 1332GH Ons Dorp (Werk)</td>\n                </tr>\n              </tbody>\n            </table>\n          </div>"
      },
      "identifier": [ {
        "system": "http://fhir.nl/fhir/NamingSystem/ura",
        "value": "11112222"
      } ],
      "type": [ {
        "coding": [ {
          "system": "urn:oid:2.16.840.1.113883.2.4.6.7",
          "version": "2020-10-23T00:00:00",
          "code": "3400",
          "display": "Trombosediensten"
        } ]
      } ],
      "name": "Trombosedienst Ons Dorp",
      "address": [ {
        "extension": [ {
          "url": "http://nictiz.nl/fhir/StructureDefinition/ext-AddressInformation.AddressType",
          "valueCodeableConcept": {
            "coding": [ {
              "system": "http://terminology.hl7.org/CodeSystem/v3-AddressUse",
              "code": "WP",
              "display": "Werkadres"
            } ]
          }
        } ],
        "use": "work",
        "line": [ "Kerkstraat 28 d" ],
        "_line": [ {
          "extension": [ {
            "url": "http://hl7.org/fhir/StructureDefinition/iso21090-ADXP-streetName",
            "valueString": "Kerkstraat"
          }, {
            "url": "http://hl7.org/fhir/StructureDefinition/iso21090-ADXP-houseNumber",
            "valueString": "28"
          }, {
            "url": "http://hl7.org/fhir/StructureDefinition/iso21090-ADXP-buildingNumberSuffix",
            "valueString": "d"
          } ]
        } ],
        "city": "Ons Dorp",
        "postalCode": "1332GH"
      } ]
    },
    "request": {
      "method": "POST",
      "url": "Organization"
    }
  }, {
    "fullUrl": "urn:uuid:4c6ca204-6b1b-11ec-0000-020000000000",
    "resource": {
      "resourceType": "Medication",
      "meta": {
        "profile": [ "http://nictiz.nl/fhir/StructureDefinition/mp-PharmaceuticalProduct" ]
      },
      "text": {
        "status": "extensions",
        "div": "<div xmlns=\"http://www.w3.org/1999/xhtml\">\n            <table>\n              <tbody>\n                <tr>\n                  <th>Code</th>\n                  <td>\n                    <span title=\"FENPROCOUMON TABLET 3MG (1783 - G-Standaard PRK)\">FENPROCOUMON TABLET 3MG</span>\n                  </td>\n                </tr>\n              </tbody>\n            </table>\n          </div>"
      },
      "code": {
        "coding": [ {
          "system": "urn:oid:2.16.840.1.113883.2.4.4.10",
          "code": "1783",
          "display": "FENPROCOUMON TABLET 3MG",
          "userSelected": true
        }, {
          "system": "urn:oid:2.16.840.1.113883.2.4.4.1",
          "code": "6637",
          "display": "FENPROCOUMON TABLET 3MG"
        } ],
        "text": "FENPROCOUMON TABLET 3MG"
      }
    },
    "request": {
      "method": "POST",
      "url": "Medication"
    }
  } ]
}