{
  "resourceType": "Bundle",
  "id": "mgsets-mp-smg-tst-MGB-Scenarioset7-v30",
  "type": "transaction",
  "entry": [ {
    "fullUrl": "urn:uuid:c76a4b86-6b6c-11ec-0000-020000000000",
    "resource": {
      "resourceType": "MedicationStatement",
      "meta": {
        "profile": [ "http://nictiz.nl/fhir/StructureDefinition/mp-MedicationUse2" ]
      },
      "text": {
        "status": "extensions",
        "div": "<div xmlns=\"http://www.w3.org/1999/xhtml\">\n            <table>\n              <caption>MedicationStatement. Subject: Patient, G. XXX_Hess. Id: MBH_300_magistraalalleingredienten_MGB (urn:oid:2.16.840.1.113883.2.4.3.11.999.77.6.1), Categorie: <span title=\"bevinding betreffende gedrag met betrekking tot medicatieregime (422979000 - SNOMED CT)\">bevinding betreffende gedrag met betrekking tot medicatieregime</span>, Status: actief</caption>\n              <tbody>\n                <tr>\n                  <th>Medicatie</th>\n                  <td>Ureum 10% in eucerine cum aqua 100gr</td>\n                </tr>\n                <tr>\n                  <th>Datum/tijd</th>\n                  <td>${DATE, T, D, +0}T00:00:00+02:00 - ${DATE, T, D, +0}T23:59:59+02:00</td>\n                </tr>\n                <tr>\n                  <th>Informant</th>\n                  <td>${DATE, T, D, +0}T21:53:00+02:00 - Patient, G. XXX_Hess</td>\n                </tr>\n                <tr>\n                  <th>Ondersteunende informatie</th>\n                  <td>relatie naar toedieningsafspraak (Id: MBH_300_magistraalalleingredienten_TA (urn:oid:2.16.840.1.113883.2.4.3.11.999.77.6.1))</td>\n                </tr>\n                <tr>\n                  <th>Dosering</th>\n                  <td>\n                    <div>Timing: <div>2 maal per dag</div>\n                    </div>\n                    <div>Toedieningsweg: <span title=\"cutaan (53 - G-Standaard thesaurus subtabel 0007)\">cutaan</span>\n                    </div>\n                  </td>\n                </tr>\n              </tbody>\n            </table>\n          </div>"
      },
      "extension": [ {
        "url": "http://nictiz.nl/fhir/StructureDefinition/ext-RenderedDosageInstruction",
        "valueString": "XXX"
      }, {
        "url": "http://nictiz.nl/fhir/StructureDefinition/ext-MedicationUse2.Prescriber",
        "valueReference": {
          "reference": "urn:uuid:36322824-6aed-11ec-0000-020000000000",
          "type": "PractitionerRole",
          "display": "Healthcare professional (role), Peter van Pulver, Huisartsen, niet nader gespecificeerd, Huisartsenpraktijk Pulver & Partners"
        }
      }, {
        "url": "http://nictiz.nl/fhir/StructureDefinition/ext-AsAgreedIndicator",
        "valueBoolean": true
      }, {
        "url": "http://nictiz.nl/fhir/StructureDefinition/ext-PharmaceuticalTreatment.Identifier",
        "valueIdentifier": {
          "system": "urn:oid:2.16.840.1.113883.2.4.3.11.999.77.1.1",
          "value": "MBH_300_magistraalalleingredienten"
        }
      }, {
        "url": "http://nictiz.nl/fhir/StructureDefinition/ext-MedicationUse2.Author",
        "valueReference": {
          "reference": "urn:uuid:36322824-6aed-11ec-0000-020000000000",
          "type": "PractitionerRole",
          "display": "Healthcare professional (role), Peter van Pulver, Huisartsen, niet nader gespecificeerd, Huisartsenpraktijk Pulver & Partners"
        }
      } ],
      "identifier": [ {
        "system": "urn:oid:2.16.840.1.113883.2.4.3.11.999.77.6.1",
        "value": "MBH_300_magistraalalleingredienten_MGB"
      } ],
      "status": "active",
      "category": {
        "coding": [ {
          "system": "http://snomed.info/sct",
          "code": "422979000",
          "display": "bevinding betreffende gedrag met betrekking tot medicatieregime"
        } ]
      },
      "medicationReference": {
        "reference": "urn:uuid:3f743d1d-6ae4-11ec-0000-020000000000",
        "type": "Medication",
        "display": "Ureum 10% in eucerine cum aqua 100gr"
      },
      "subject": {
        "reference": "urn:uuid:abfa2efe-6b61-11ec-0000-020000000000",
        "type": "Patient",
        "display": "Patient, G. XXX_Hess"
      },
      "effectivePeriod": {
        "start": "${DATE, T, D, +0}T00:00:00+02:00",
        "end": "${DATE, T, D, +0}T23:59:59+02:00"
      },
      "dateAsserted": "${DATE, T, D, +0}T21:53:00+02:00",
      "informationSource": {
        "reference": "urn:uuid:abfa2efe-6b61-11ec-0000-020000000000",
        "type": "Patient",
        "display": "Patient, G. XXX_Hess"
      },
      "derivedFrom": [ {
        "extension": [ {
          "url": "http://nictiz.nl/fhir/StructureDefinition/ext-ResourceCategory",
          "valueCodeableConcept": {
            "coding": [ {
              "system": "http://snomed.info/sct",
              "code": "422037009",
              "display": "toedieningsafspraak"
            } ]
          }
        } ],
        "type": "MedicationRequest",
        "identifier": {
          "system": "urn:oid:2.16.840.1.113883.2.4.3.11.999.77.6.1",
          "value": "MBH_300_magistraalalleingredienten_TA"
        },
        "display": "relatie naar toedieningsafspraak"
      } ],
      "dosage": [ {
        "timing": {
          "repeat": {
            "frequency": 2,
            "period": 1,
            "periodUnit": "d"
          }
        },
        "route": {
          "coding": [ {
            "system": "urn:oid:2.16.840.1.113883.2.4.4.9",
            "code": "53",
            "display": "cutaan"
          } ]
        }
      } ]
    },
    "request": {
      "method": "POST",
      "url": "MedicationStatement"
    }
  }, {
    "fullUrl": "urn:uuid:186cd746-6a97-11ec-0000-020000000000",
    "resource": {
      "resourceType": "MedicationStatement",
      "meta": {
        "profile": [ "http://nictiz.nl/fhir/StructureDefinition/mp-MedicationUse2" ]
      },
      "text": {
        "status": "extensions",
        "div": "<div xmlns=\"http://www.w3.org/1999/xhtml\">\n            <table>\n              <caption>MedicationStatement. Subject: Patient, G. XXX_Hess. Id: MBH_300_magistraalactieveingredient_MGB (urn:oid:2.16.840.1.113883.2.4.3.11.999.77.6.1), Categorie: <span title=\"bevinding betreffende gedrag met betrekking tot medicatieregime (422979000 - SNOMED CT)\">bevinding betreffende gedrag met betrekking tot medicatieregime</span>, Status: actief</caption>\n              <tbody>\n                <tr>\n                  <th>Medicatie</th>\n                  <td>Vaseline 20% in cetomacrogolcrème FNA</td>\n                </tr>\n                <tr>\n                  <th>Datum/tijd</th>\n                  <td>${DATE, T, D, +0}T00:00:00+02:00 - ${DATE, T, D, +0}T23:59:59+02:00</td>\n                </tr>\n                <tr>\n                  <th>Informant</th>\n                  <td>${DATE, T, D, +0}T22:08:00+02:00 - Patient, G. XXX_Hess</td>\n                </tr>\n                <tr>\n                  <th>Ondersteunende informatie</th>\n                  <td>relatie naar toedieningsafspraak (Id: MBH_300_magistraalactieveingredient_TA (urn:oid:2.16.840.1.113883.2.4.3.11.999.77.422037009.1))</td>\n                </tr>\n                <tr>\n                  <th>Dosering</th>\n                  <td>\n                    <div>Timing: <div>3 maal per dag</div>\n                    </div>\n                    <div>Toedieningsweg: <span title=\"cutaan (53 - G-Standaard thesaurus subtabel 0007)\">cutaan</span>\n                    </div>\n                  </td>\n                </tr>\n              </tbody>\n            </table>\n          </div>"
      },
      "extension": [ {
        "url": "http://nictiz.nl/fhir/StructureDefinition/ext-RenderedDosageInstruction",
        "valueString": "XXX"
      }, {
        "url": "http://nictiz.nl/fhir/StructureDefinition/ext-MedicationUse2.Prescriber",
        "valueReference": {
          "reference": "urn:uuid:36322824-6aed-11ec-0000-020000000000",
          "type": "PractitionerRole",
          "display": "Healthcare professional (role), Peter van Pulver, Huisartsen, niet nader gespecificeerd, Huisartsenpraktijk Pulver & Partners"
        }
      }, {
        "url": "http://nictiz.nl/fhir/StructureDefinition/ext-AsAgreedIndicator",
        "valueBoolean": false
      }, {
        "url": "http://nictiz.nl/fhir/StructureDefinition/ext-PharmaceuticalTreatment.Identifier",
        "valueIdentifier": {
          "system": "urn:oid:2.16.840.1.113883.2.4.3.11.999.77.1.1",
          "value": "MBH_300_magistraalactieveingredient"
        }
      }, {
        "url": "http://nictiz.nl/fhir/StructureDefinition/ext-MedicationUse2.Author",
        "valueReference": {
          "reference": "urn:uuid:36322824-6aed-11ec-0000-020000000000",
          "type": "PractitionerRole",
          "display": "Healthcare professional (role), Peter van Pulver, Huisartsen, niet nader gespecificeerd, Huisartsenpraktijk Pulver & Partners"
        }
      } ],
      "identifier": [ {
        "system": "urn:oid:2.16.840.1.113883.2.4.3.11.999.77.6.1",
        "value": "MBH_300_magistraalactieveingredient_MGB"
      } ],
      "status": "active",
      "category": {
        "coding": [ {
          "system": "http://snomed.info/sct",
          "code": "422979000",
          "display": "bevinding betreffende gedrag met betrekking tot medicatieregime"
        } ]
      },
      "medicationReference": {
        "reference": "urn:uuid:8c8bfb04-6b21-11ec-0000-020000000000",
        "type": "Medication",
        "display": "Vaseline 20% in cetomacrogolcrème FNA"
      },
      "subject": {
        "reference": "urn:uuid:abfa2efe-6b61-11ec-0000-020000000000",
        "type": "Patient",
        "display": "Patient, G. XXX_Hess"
      },
      "effectivePeriod": {
        "start": "${DATE, T, D, +0}T00:00:00+02:00",
        "end": "${DATE, T, D, +0}T23:59:59+02:00"
      },
      "dateAsserted": "${DATE, T, D, +0}T22:08:00+02:00",
      "informationSource": {
        "reference": "urn:uuid:abfa2efe-6b61-11ec-0000-020000000000",
        "type": "Patient",
        "display": "Patient, G. XXX_Hess"
      },
      "derivedFrom": [ {
        "extension": [ {
          "url": "http://nictiz.nl/fhir/StructureDefinition/ext-ResourceCategory",
          "valueCodeableConcept": {
            "coding": [ {
              "system": "http://snomed.info/sct",
              "code": "422037009",
              "display": "toedieningsafspraak"
            } ]
          }
        } ],
        "type": "MedicationRequest",
        "identifier": {
          "system": "urn:oid:2.16.840.1.113883.2.4.3.11.999.77.422037009.1",
          "value": "MBH_300_magistraalactieveingredient_TA"
        },
        "display": "relatie naar toedieningsafspraak"
      } ],
      "dosage": [ {
        "timing": {
          "repeat": {
            "frequency": 3,
            "period": 1,
            "periodUnit": "d"
          }
        },
        "route": {
          "coding": [ {
            "system": "urn:oid:2.16.840.1.113883.2.4.4.9",
            "code": "53",
            "display": "cutaan"
          } ]
        }
      } ]
    },
    "request": {
      "method": "POST",
      "url": "MedicationStatement"
    }
  }, {
    "fullUrl": "urn:uuid:4aecdcbd-6b27-11ec-0000-020000000000",
    "resource": {
      "resourceType": "MedicationStatement",
      "meta": {
        "profile": [ "http://nictiz.nl/fhir/StructureDefinition/mp-MedicationUse2" ]
      },
      "text": {
        "status": "extensions",
        "div": "<div xmlns=\"http://www.w3.org/1999/xhtml\">\n            <table>\n              <caption>MedicationStatement. Subject: Patient, G. XXX_Hess. Id: MBH_300_magistraal90miljoennr_MGB (urn:oid:2.16.840.1.113883.2.4.3.11.999.77.6.1), Categorie: <span title=\"bevinding betreffende gedrag met betrekking tot medicatieregime (422979000 - SNOMED CT)\">bevinding betreffende gedrag met betrekking tot medicatieregime</span>, Status: actief</caption>\n              <tbody>\n                <tr>\n                  <th>Medicatie</th>\n                  <td>Eigen artikel: ureumzalf</td>\n                </tr>\n                <tr>\n                  <th>Datum/tijd</th>\n                  <td>${DATE, T, D, +0}T00:00:00+02:00 - ${DATE, T, D, +0}T23:59:59+02:00</td>\n                </tr>\n                <tr>\n                  <th>Informant</th>\n                  <td>${DATE, T, D, +0}T23:01:00+02:00 - Patient, G. XXX_Hess</td>\n                </tr>\n                <tr>\n                  <th>Ondersteunende informatie</th>\n                  <td>relatie naar toedieningsafspraak (Id: MBH_300_magistraal90miljoennr_TA (urn:oid:2.16.840.1.113883.2.4.3.11.999.77.422037009.1))</td>\n                </tr>\n                <tr>\n                  <th>Dosering</th>\n                  <td>\n                    <div>Timing: <div>eenmalig per dag</div>\n                    </div>\n                    <div>Toedieningsweg: <span title=\"cutaan (53 - G-Standaard thesaurus subtabel 0007)\">cutaan</span>\n                    </div>\n                  </td>\n                </tr>\n              </tbody>\n            </table>\n          </div>"
      },
      "extension": [ {
        "url": "http://nictiz.nl/fhir/StructureDefinition/ext-RenderedDosageInstruction",
        "valueString": "XXX"
      }, {
        "url": "http://nictiz.nl/fhir/StructureDefinition/ext-MedicationUse2.Prescriber",
        "valueReference": {
          "reference": "urn:uuid:36322824-6aed-11ec-0000-020000000000",
          "type": "PractitionerRole",
          "display": "Healthcare professional (role), Peter van Pulver, Huisartsen, niet nader gespecificeerd, Huisartsenpraktijk Pulver & Partners"
        }
      }, {
        "url": "http://nictiz.nl/fhir/StructureDefinition/ext-AsAgreedIndicator",
        "valueBoolean": true
      }, {
        "url": "http://nictiz.nl/fhir/StructureDefinition/ext-PharmaceuticalTreatment.Identifier",
        "valueIdentifier": {
          "system": "urn:oid:2.16.840.1.113883.2.4.3.11.999.77.1.1",
          "value": "MBH_300_magistraal90miljoennr"
        }
      }, {
        "url": "http://nictiz.nl/fhir/StructureDefinition/ext-MedicationUse2.Author",
        "valueReference": {
          "reference": "urn:uuid:36322824-6aed-11ec-0000-020000000000",
          "type": "PractitionerRole",
          "display": "Healthcare professional (role), Peter van Pulver, Huisartsen, niet nader gespecificeerd, Huisartsenpraktijk Pulver & Partners"
        }
      } ],
      "identifier": [ {
        "system": "urn:oid:2.16.840.1.113883.2.4.3.11.999.77.6.1",
        "value": "MBH_300_magistraal90miljoennr_MGB"
      } ],
      "status": "active",
      "category": {
        "coding": [ {
          "system": "http://snomed.info/sct",
          "code": "422979000",
          "display": "bevinding betreffende gedrag met betrekking tot medicatieregime"
        } ]
      },
      "medicationReference": {
        "reference": "urn:uuid:f74cdd04-6b18-11ec-0000-020000000000",
        "type": "Medication",
        "display": "Eigen artikel: ureumzalf"
      },
      "subject": {
        "reference": "urn:uuid:abfa2efe-6b61-11ec-0000-020000000000",
        "type": "Patient",
        "display": "Patient, G. XXX_Hess"
      },
      "effectivePeriod": {
        "start": "${DATE, T, D, +0}T00:00:00+02:00",
        "end": "${DATE, T, D, +0}T23:59:59+02:00"
      },
      "dateAsserted": "${DATE, T, D, +0}T23:01:00+02:00",
      "informationSource": {
        "reference": "urn:uuid:abfa2efe-6b61-11ec-0000-020000000000",
        "type": "Patient",
        "display": "Patient, G. XXX_Hess"
      },
      "derivedFrom": [ {
        "extension": [ {
          "url": "http://nictiz.nl/fhir/StructureDefinition/ext-ResourceCategory",
          "valueCodeableConcept": {
            "coding": [ {
              "system": "http://snomed.info/sct",
              "code": "422037009",
              "display": "toedieningsafspraak"
            } ]
          }
        } ],
        "type": "MedicationRequest",
        "identifier": {
          "system": "urn:oid:2.16.840.1.113883.2.4.3.11.999.77.422037009.1",
          "value": "MBH_300_magistraal90miljoennr_TA"
        },
        "display": "relatie naar toedieningsafspraak"
      } ],
      "dosage": [ {
        "timing": {
          "repeat": {
            "frequency": 1,
            "period": 1,
            "periodUnit": "d"
          }
        },
        "route": {
          "coding": [ {
            "system": "urn:oid:2.16.840.1.113883.2.4.4.9",
            "code": "53",
            "display": "cutaan"
          } ]
        }
      } ]
    },
    "request": {
      "method": "POST",
      "url": "MedicationStatement"
    }
  }, {
    "fullUrl": "urn:uuid:e91e2467-6ac9-11ec-0000-020000000000",
    "resource": {
      "resourceType": "MedicationStatement",
      "meta": {
        "profile": [ "http://nictiz.nl/fhir/StructureDefinition/mp-MedicationUse2" ]
      },
      "text": {
        "status": "extensions",
        "div": "<div xmlns=\"http://www.w3.org/1999/xhtml\">\n            <table>\n              <caption>MedicationStatement. Subject: Patient, G. XXX_Hess. Id: MBH_300_vrijetekstproduct_MGB (urn:oid:2.16.840.1.113883.2.4.3.11.999.77.6.1), Categorie: <span title=\"bevinding betreffende gedrag met betrekking tot medicatieregime (422979000 - SNOMED CT)\">bevinding betreffende gedrag met betrekking tot medicatieregime</span>, Status: actief</caption>\n              <tbody>\n                <tr>\n                  <th>Medicatie</th>\n                  <td>Jemperli 500 mg/ 10 mL</td>\n                </tr>\n                <tr>\n                  <th>Datum/tijd</th>\n                  <td>Vanaf ${DATE, T, D, -1}T00:00:00+02:00</td>\n                </tr>\n                <tr>\n                  <th>Informant</th>\n                  <td>${DATE, T, D, -1}T21:52:00+02:00 - Patient, G. XXX_Hess</td>\n                </tr>\n                <tr>\n                  <th>Ondersteunende informatie</th>\n                  <td>relatie naar toedieningsafspraak (Id: MBH_300_vrijetekstproduct_TA (urn:oid:2.16.840.1.113883.2.4.3.11.999.77.422037009.1))</td>\n                </tr>\n                <tr>\n                  <th>Dosering</th>\n                  <td>\n                    <div>Timing: <div>eenmalig per 3 weken</div>\n                    </div>\n                    <div>Toedieningsweg: <span title=\"Intraveneus (5 - G-Standaard thesaurus subtabel 0007)\">Intraveneus</span>\n                    </div>\n                    <div>Dosering: doseAndRate TODO</div>\n                  </td>\n                </tr>\n              </tbody>\n            </table>\n          </div>"
      },
      "extension": [ {
        "url": "http://nictiz.nl/fhir/StructureDefinition/ext-RenderedDosageInstruction",
        "valueString": "Wordt gegenereerd"
      }, {
        "url": "http://nictiz.nl/fhir/StructureDefinition/ext-MedicationUse2.Prescriber",
        "valueReference": {
          "reference": "urn:uuid:36322824-6aed-11ec-0000-020000000000",
          "type": "PractitionerRole",
          "display": "Healthcare professional (role), Peter van Pulver, Huisartsen, niet nader gespecificeerd, Huisartsenpraktijk Pulver & Partners"
        }
      }, {
        "url": "http://nictiz.nl/fhir/StructureDefinition/ext-AsAgreedIndicator",
        "valueBoolean": true
      }, {
        "url": "http://nictiz.nl/fhir/StructureDefinition/ext-PharmaceuticalTreatment.Identifier",
        "valueIdentifier": {
          "system": "urn:oid:2.16.840.1.113883.2.4.3.11.999.77.1.1",
          "value": "MBH_300_vrijetekstproduct"
        }
      }, {
        "url": "http://nictiz.nl/fhir/StructureDefinition/ext-MedicationUse2.Author",
        "valueReference": {
          "reference": "urn:uuid:36322824-6aed-11ec-0000-020000000000",
          "type": "PractitionerRole",
          "display": "Healthcare professional (role), Peter van Pulver, Huisartsen, niet nader gespecificeerd, Huisartsenpraktijk Pulver & Partners"
        }
      } ],
      "identifier": [ {
        "system": "urn:oid:2.16.840.1.113883.2.4.3.11.999.77.6.1",
        "value": "MBH_300_vrijetekstproduct_MGB"
      } ],
      "status": "active",
      "category": {
        "coding": [ {
          "system": "http://snomed.info/sct",
          "code": "422979000",
          "display": "bevinding betreffende gedrag met betrekking tot medicatieregime"
        } ]
      },
      "medicationReference": {
        "reference": "urn:uuid:e2241ae9-6b44-11ec-0000-020000000000",
        "type": "Medication",
        "display": "Jemperli 500 mg/ 10 mL"
      },
      "subject": {
        "reference": "urn:uuid:abfa2efe-6b61-11ec-0000-020000000000",
        "type": "Patient",
        "display": "Patient, G. XXX_Hess"
      },
      "effectivePeriod": {
        "extension": [ {
          "url": "http://nictiz.nl/fhir/StructureDefinition/ext-TimeInterval.Duration",
          "valueDuration": {
            "value": 1,
            "unit": "dag",
            "system": "http://unitsofmeasure.org",
            "code": "d"
          }
        } ],
        "start": "${DATE, T, D, -1}T00:00:00+02:00"
      },
      "dateAsserted": "${DATE, T, D, -1}T21:52:00+02:00",
      "informationSource": {
        "reference": "urn:uuid:abfa2efe-6b61-11ec-0000-020000000000",
        "type": "Patient",
        "display": "Patient, G. XXX_Hess"
      },
      "derivedFrom": [ {
        "extension": [ {
          "url": "http://nictiz.nl/fhir/StructureDefinition/ext-ResourceCategory",
          "valueCodeableConcept": {
            "coding": [ {
              "system": "http://snomed.info/sct",
              "code": "422037009",
              "display": "toedieningsafspraak"
            } ]
          }
        } ],
        "type": "MedicationRequest",
        "identifier": {
          "system": "urn:oid:2.16.840.1.113883.2.4.3.11.999.77.422037009.1",
          "value": "MBH_300_vrijetekstproduct_TA"
        },
        "display": "relatie naar toedieningsafspraak"
      } ],
      "dosage": [ {
        "timing": {
          "repeat": {
            "frequency": 1,
            "period": 3,
            "periodUnit": "wk"
          }
        },
        "route": {
          "coding": [ {
            "system": "urn:oid:2.16.840.1.113883.2.4.4.9",
            "code": "5",
            "display": "Intraveneus"
          } ]
        },
        "doseAndRate": [ {
          "doseQuantity": {
            "extension": [ {
              "url": "http://hl7.org/fhir/StructureDefinition/iso21090-PQ-translation",
              "valueQuantity": {
                "value": 1,
                "unit": "stuk",
                "system": "urn:oid:2.16.840.1.113883.2.4.4.1.900.2",
                "code": "245"
              }
            } ],
            "value": 1,
            "unit": "stuk",
            "system": "http://unitsofmeasure.org",
            "code": "1"
          }
        } ]
      } ]
    },
    "request": {
      "method": "POST",
      "url": "MedicationStatement"
    }
  }, {
    "fullUrl": "urn:uuid:abfa2efe-6b61-11ec-0000-020000000000",
    "resource": {
      "resourceType": "Patient",
      "meta": {
        "profile": [ "http://nictiz.nl/fhir/StructureDefinition/nl-core-Patient" ]
      },
      "text": {
        "status": "extensions",
        "div": "<div xmlns=\"http://www.w3.org/1999/xhtml\">\n            <div>Id 999900614 (BSN), <span title=\"Naamsamenstelling: Eigennaam\">G. XXX_Hess</span>, Man, 3 november 1963</div>\n          </div>"
      },
      "identifier": [ {
        "system": "http://fhir.nl/fhir/NamingSystem/bsn",
        "value": "999900614"
      } ],
      "name": [ {
        "extension": [ {
          "url": "http://hl7.org/fhir/StructureDefinition/humanname-assembly-order",
          "valueCode": "NL1"
        } ],
        "use": "official",
        "text": "G. XXX_Hess",
        "family": "XXX_Hess",
        "_family": {
          "extension": [ {
            "url": "http://hl7.org/fhir/StructureDefinition/humanname-own-name",
            "valueString": "XXX_Hess"
          } ]
        },
        "given": [ "G." ],
        "_given": [ {
          "extension": [ {
            "url": "http://hl7.org/fhir/StructureDefinition/iso21090-EN-qualifier",
            "valueCode": "IN"
          } ]
        } ]
      } ],
      "gender": "male",
      "_gender": {
        "extension": [ {
          "url": "http://nictiz.nl/fhir/StructureDefinition/ext-CodeSpecification",
          "valueCodeableConcept": {
            "coding": [ {
              "system": "http://terminology.hl7.org/CodeSystem/v3-AdministrativeGender",
              "code": "M",
              "display": "Man"
            } ]
          }
        } ]
      },
      "birthDate": "1963-11-03"
    },
    "request": {
      "method": "POST",
      "url": "Patient"
    }
  }, {
    "fullUrl": "urn:uuid:36322824-6aed-11ec-0000-020000000000",
    "resource": {
      "resourceType": "PractitionerRole",
      "meta": {
        "profile": [ "http://nictiz.nl/fhir/StructureDefinition/nl-core-HealthProfessional-PractitionerRole" ]
      },
      "text": {
        "status": "extensions",
        "div": "<div xmlns=\"http://www.w3.org/1999/xhtml\">\n            <table>\n              <caption>Zorgverlenerrol. </caption>\n              <tbody>\n                <tr>\n                  <th>Zorgverlener</th>\n                  <td>\n                    <div>Healthcare professional (person), Peter van Pulver</div>\n                    <div>Healthcare provider (organization), Huisartsenpraktijk Pulver &amp; Partners</div>\n                  </td>\n                </tr>\n                <tr>\n                  <th>Specialisme</th>\n                  <td>\n                    <span title=\"Huisartsen, niet nader gespecificeerd (0100 - AGB-medisch specialisme)\">Huisartsen, niet nader gespecificeerd</span>\n                  </td>\n                </tr>\n              </tbody>\n            </table>\n          </div>"
      },
      "practitioner": {
        "reference": "urn:uuid:4a573558-6ad5-11ec-0000-020000000000",
        "type": "Practitioner",
        "display": "Healthcare professional (person), Peter van Pulver"
      },
      "organization": {
        "reference": "urn:uuid:7fa869d8-6b44-11ec-0000-020000000000",
        "type": "Organization",
        "display": "Healthcare provider (organization), Huisartsenpraktijk Pulver & Partners"
      },
      "specialty": [ {
        "coding": [ {
          "system": "urn:oid:2.16.840.1.113883.2.4.6.7",
          "version": "2020-10-23T00:00:00",
          "code": "0100",
          "display": "Huisartsen, niet nader gespecificeerd"
        } ]
      } ]
    },
    "request": {
      "method": "POST",
      "url": "PractitionerRole"
    }
  }, {
    "fullUrl": "urn:uuid:4a573558-6ad5-11ec-0000-020000000000",
    "resource": {
      "resourceType": "Practitioner",
      "meta": {
        "profile": [ "http://nictiz.nl/fhir/StructureDefinition/nl-core-HealthProfessional-Practitioner" ]
      },
      "text": {
        "status": "extensions",
        "div": "<div xmlns=\"http://www.w3.org/1999/xhtml\">\n            <div>Id 000001111 (UZI-NR-PERS), Peter van Pulver</div>\n          </div>"
      },
      "identifier": [ {
        "system": "http://fhir.nl/fhir/NamingSystem/uzi-nr-pers",
        "value": "000001111"
      } ],
      "name": [ {
        "use": "official",
        "text": "Peter van Pulver",
        "family": "van Pulver",
        "_family": {
          "extension": [ {
            "url": "http://hl7.org/fhir/StructureDefinition/humanname-own-prefix",
            "valueString": "van"
          }, {
            "url": "http://hl7.org/fhir/StructureDefinition/humanname-own-name",
            "valueString": "Pulver"
          } ]
        },
        "given": [ "Peter" ],
        "_given": [ {
          "extension": [ {
            "url": "http://hl7.org/fhir/StructureDefinition/iso21090-EN-qualifier",
            "valueCode": "BR"
          } ]
        } ]
      } ]
    },
    "request": {
      "method": "POST",
      "url": "Practitioner"
    }
  }, {
    "fullUrl": "urn:uuid:7fa869d8-6b44-11ec-0000-020000000000",
    "resource": {
      "resourceType": "Organization",
      "meta": {
        "profile": [ "http://nictiz.nl/fhir/StructureDefinition/nl-core-HealthcareProvider-Organization" ]
      },
      "text": {
        "status": "extensions",
        "div": "<div xmlns=\"http://www.w3.org/1999/xhtml\">\n            <table>\n              <caption>Organisatie. Id: 00001111 (URA)</caption>\n              <tbody>\n                <tr>\n                  <th>Naam</th>\n                  <td>Huisartsenpraktijk Pulver &amp; Partners</td>\n                </tr>\n                <tr>\n                  <th>Adres</th>\n                  <td>Dorpsstraat 1, 1234AA Ons Dorp (Werk)</td>\n                </tr>\n              </tbody>\n            </table>\n          </div>"
      },
      "identifier": [ {
        "system": "http://fhir.nl/fhir/NamingSystem/ura",
        "value": "00001111"
      } ],
      "name": "Huisartsenpraktijk Pulver & Partners",
      "address": [ {
        "extension": [ {
          "url": "http://nictiz.nl/fhir/StructureDefinition/ext-AddressInformation.AddressType",
          "valueCodeableConcept": {
            "coding": [ {
              "system": "http://terminology.hl7.org/CodeSystem/v3-AddressUse",
              "code": "WP",
              "display": "Werkadres"
            } ]
          }
        } ],
        "use": "work",
        "line": [ "Dorpsstraat 1" ],
        "_line": [ {
          "extension": [ {
            "url": "http://hl7.org/fhir/StructureDefinition/iso21090-ADXP-streetName",
            "valueString": "Dorpsstraat"
          }, {
            "url": "http://hl7.org/fhir/StructureDefinition/iso21090-ADXP-houseNumber",
            "valueString": "1"
          } ]
        } ],
        "city": "Ons Dorp",
        "postalCode": "1234AA"
      } ]
    },
    "request": {
      "method": "POST",
      "url": "Organization"
    }
  }, {
    "fullUrl": "urn:uuid:3f743d1d-6ae4-11ec-0000-020000000000",
    "resource": {
      "resourceType": "Medication",
      "meta": {
        "profile": [ "http://nictiz.nl/fhir/StructureDefinition/mp-PharmaceuticalProduct" ]
      },
      "text": {
        "status": "extensions",
        "div": "<div xmlns=\"http://www.w3.org/1999/xhtml\">\n            <table>\n              <tbody>\n                <tr>\n                  <th>Code</th>\n                  <td>Ureum 10% in eucerine cum aqua 100gr</td>\n                  <th>Ingredients</th>\n                  <td>\n                    <ul>\n                      <li>\n                        <span title=\"UREUM ZALF 10% FAGRON (1042467 - G-Standaard HPK)\">UREUM ZALF 10% FAGRON</span>\n                      </li>\n                      <li>\n                        <span title=\"EUCERINE MET WATER FAGRON (1516981 - G-Standaard HPK)\">EUCERINE MET WATER FAGRON</span>\n                      </li>\n                    </ul>\n                  </td>\n                </tr>\n              </tbody>\n            </table>\n          </div>"
      },
      "extension": [ {
        "url": "http://nictiz.nl/fhir/StructureDefinition/ext-PharmaceuticalProduct.Description",
        "valueString": "Titel: Ureum 10% in eucerine cum aqua 100gr           Regel: UREUM 10gr           Regel: EUCERINE MET WATER FAGRON ad 100gr"
      } ],
      "code": {
        "extension": [ {
          "url": "http://hl7.org/fhir/StructureDefinition/iso21090-nullFlavor",
          "valueCode": "OTH"
        } ],
        "text": "Ureum 10% in eucerine cum aqua 100gr"
      },
      "ingredient": [ {
        "itemCodeableConcept": {
          "coding": [ {
            "system": "urn:oid:2.16.840.1.113883.2.4.4.7",
            "code": "1042467",
            "display": "UREUM ZALF 10% FAGRON"
          } ]
        },
        "strength": {
          "numerator": {
            "extension": [ {
              "url": "http://hl7.org/fhir/StructureDefinition/iso21090-PQ-translation",
              "valueQuantity": {
                "value": 10,
                "unit": "gram",
                "system": "urn:oid:2.16.840.1.113883.2.4.4.1.900.2",
                "code": "215"
              }
            } ],
            "value": 10,
            "unit": "gram",
            "system": "http://unitsofmeasure.org",
            "code": "g"
          },
          "denominator": {
            "extension": [ {
              "url": "http://hl7.org/fhir/StructureDefinition/iso21090-PQ-translation",
              "valueQuantity": {
                "value": 100,
                "unit": "gram",
                "system": "urn:oid:2.16.840.1.113883.2.4.4.1.900.2",
                "code": "215"
              }
            } ],
            "value": 100,
            "unit": "gram",
            "system": "http://unitsofmeasure.org",
            "code": "g"
          }
        }
      }, {
        "itemCodeableConcept": {
          "coding": [ {
            "system": "urn:oid:2.16.840.1.113883.2.4.4.7",
            "code": "1516981",
            "display": "EUCERINE MET WATER FAGRON"
          } ]
        },
        "strength": {
          "numerator": {
            "extension": [ {
              "url": "http://hl7.org/fhir/StructureDefinition/iso21090-PQ-translation",
              "valueQuantity": {
                "value": 90,
                "unit": "gram",
                "system": "urn:oid:2.16.840.1.113883.2.4.4.1.900.2",
                "code": "215"
              }
            } ],
            "value": 90,
            "unit": "gram",
            "system": "http://unitsofmeasure.org",
            "code": "g"
          },
          "denominator": {
            "extension": [ {
              "url": "http://hl7.org/fhir/StructureDefinition/iso21090-PQ-translation",
              "valueQuantity": {
                "value": 100,
                "unit": "gram",
                "system": "urn:oid:2.16.840.1.113883.2.4.4.1.900.2",
                "code": "215"
              }
            } ],
            "value": 100,
            "unit": "gram",
            "system": "http://unitsofmeasure.org",
            "code": "g"
          }
        }
      } ]
    },
    "request": {
      "method": "POST",
      "url": "Medication"
    }
  }, {
    "fullUrl": "urn:uuid:8c8bfb04-6b21-11ec-0000-020000000000",
    "resource": {
      "resourceType": "Medication",
      "meta": {
        "profile": [ "http://nictiz.nl/fhir/StructureDefinition/mp-PharmaceuticalProduct" ]
      },
      "text": {
        "status": "extensions",
        "div": "<div xmlns=\"http://www.w3.org/1999/xhtml\">\n            <table>\n              <tbody>\n                <tr>\n                  <th>Code</th>\n                  <td>Vaseline 20% in cetomacrogolcrème FNA</td>\n                  <th>Ingredients</th>\n                  <td>\n                    <ul>\n                      <li>\n                        <span title=\"CETOMACROGOLCREME FNA (457590 - G-Standaard HPK)\">CETOMACROGOLCREME FNA</span>\n                      </li>\n                    </ul>\n                  </td>\n                </tr>\n              </tbody>\n            </table>\n          </div>"
      },
      "extension": [ {
        "url": "http://nictiz.nl/fhir/StructureDefinition/ext-PharmaceuticalProduct.Description",
        "valueString": "Titel: Vaseline 20% in cetomacrogolcrème FNA Regel 1: cetomacrogolcreme 80 gr"
      } ],
      "code": {
        "extension": [ {
          "url": "http://hl7.org/fhir/StructureDefinition/iso21090-nullFlavor",
          "valueCode": "OTH"
        } ],
        "text": "Vaseline 20% in cetomacrogolcrème FNA"
      },
      "ingredient": [ {
        "itemCodeableConcept": {
          "coding": [ {
            "system": "urn:oid:2.16.840.1.113883.2.4.4.7",
            "code": "457590",
            "display": "CETOMACROGOLCREME FNA"
          } ]
        },
        "strength": {
          "numerator": {
            "extension": [ {
              "url": "http://hl7.org/fhir/StructureDefinition/iso21090-PQ-translation",
              "valueQuantity": {
                "value": 80,
                "unit": "gram",
                "system": "urn:oid:2.16.840.1.113883.2.4.4.1.900.2",
                "code": "215"
              }
            } ],
            "value": 80,
            "unit": "gram",
            "system": "http://unitsofmeasure.org",
            "code": "g"
          },
          "denominator": {
            "extension": [ {
              "url": "http://hl7.org/fhir/StructureDefinition/iso21090-PQ-translation",
              "valueQuantity": {
                "value": 100,
                "unit": "gram",
                "system": "urn:oid:2.16.840.1.113883.2.4.4.1.900.2",
                "code": "215"
              }
            } ],
            "value": 100,
            "unit": "gram",
            "system": "http://unitsofmeasure.org",
            "code": "g"
          }
        }
      } ]
    },
    "request": {
      "method": "POST",
      "url": "Medication"
    }
  }, {
    "fullUrl": "urn:uuid:f74cdd04-6b18-11ec-0000-020000000000",
    "resource": {
      "resourceType": "Medication",
      "meta": {
        "profile": [ "http://nictiz.nl/fhir/StructureDefinition/mp-PharmaceuticalProduct" ]
      },
      "text": {
        "status": "extensions",
        "div": "<div xmlns=\"http://www.w3.org/1999/xhtml\">\n            <table>\n              <tbody>\n                <tr>\n                  <th>Code</th>\n                  <td>\n                    <span title=\"Eigen artikel: ureumzalf (90000001 - 2.16.840.1.113883.2.4.3.11.9999.77.90000000.1.1111)\">Eigen artikel: ureumzalf</span>\n                  </td>\n                  <th>Ingredients</th>\n                  <td>\n                    <ul>\n                      <li>\n                        <span title=\"UREUM ZALF 10% FAGRON (1042467 - G-Standaard HPK)\">UREUM ZALF 10% FAGRON</span>\n                      </li>\n                    </ul>\n                  </td>\n                </tr>\n              </tbody>\n            </table>\n          </div>"
      },
      "extension": [ {
        "url": "http://nictiz.nl/fhir/StructureDefinition/ext-PharmaceuticalProduct.Description",
        "valueString": "Titel: Ureum 10% in eucerine cum aqua 100gr           Regel: UREUM 10gr           Regel: EUCERINE MET WATER FAGRON ad 100gr"
      } ],
      "code": {
        "coding": [ {
          "system": "urn:oid:2.16.840.1.113883.2.4.3.11.9999.77.90000000.1.1111",
          "code": "90000001",
          "display": "Eigen artikel: ureumzalf",
          "userSelected": true
        } ],
        "text": "Ureum 10% in eucerine cum aqua 100gr"
      },
      "ingredient": [ {
        "itemCodeableConcept": {
          "coding": [ {
            "system": "urn:oid:2.16.840.1.113883.2.4.4.7",
            "code": "1042467",
            "display": "UREUM ZALF 10% FAGRON"
          } ]
        },
        "strength": {
          "numerator": {
            "extension": [ {
              "url": "http://hl7.org/fhir/StructureDefinition/iso21090-PQ-translation",
              "valueQuantity": {
                "value": 10,
                "unit": "gram",
                "system": "urn:oid:2.16.840.1.113883.2.4.4.1.900.2",
                "code": "215"
              }
            } ],
            "value": 10,
            "unit": "gram",
            "system": "http://unitsofmeasure.org",
            "code": "g"
          },
          "denominator": {
            "extension": [ {
              "url": "http://hl7.org/fhir/StructureDefinition/iso21090-PQ-translation",
              "valueQuantity": {
                "value": 100,
                "unit": "gram",
                "system": "urn:oid:2.16.840.1.113883.2.4.4.1.900.2",
                "code": "215"
              }
            } ],
            "value": 100,
            "unit": "gram",
            "system": "http://unitsofmeasure.org",
            "code": "g"
          }
        }
      } ]
    },
    "request": {
      "method": "POST",
      "url": "Medication"
    }
  }, {
    "fullUrl": "urn:uuid:e2241ae9-6b44-11ec-0000-020000000000",
    "resource": {
      "resourceType": "Medication",
      "meta": {
        "profile": [ "http://nictiz.nl/fhir/StructureDefinition/mp-PharmaceuticalProduct" ]
      },
      "text": {
        "status": "extensions",
        "div": "<div xmlns=\"http://www.w3.org/1999/xhtml\">\n            <table>\n              <tbody>\n                <tr>\n                  <th>Code</th>\n                  <td>Jemperli 500 mg/ 10 mL</td>\n                </tr>\n              </tbody>\n            </table>\n          </div>"
      },
      "extension": [ {
        "url": "http://nictiz.nl/fhir/StructureDefinition/ext-PharmaceuticalProduct.Description",
        "valueString": "Titel: Jemperli (Dostarlimab-gxly) 500 mg/10 mL"
      } ],
      "code": {
        "extension": [ {
          "url": "http://hl7.org/fhir/StructureDefinition/iso21090-nullFlavor",
          "valueCode": "OTH"
        } ],
        "text": "Jemperli 500 mg/ 10 mL"
      }
    },
    "request": {
      "method": "POST",
      "url": "Medication"
    }
  } ]
}