{
  "resourceType": "Bundle",
  "id": "mgsets-mp-smg-tst-MTD-Scenarioset16-v30",
  "type": "transaction",
  "entry": [ {
    "fullUrl": "urn:uuid:dec6800f-6aa0-11ec-0000-020000000000",
    "resource": {
      "resourceType": "MedicationAdministration",
      "meta": {
        "profile": [ "http://nictiz.nl/fhir/StructureDefinition/mp-MedicationAdministration2" ]
      },
      "text": {
        "status": "extensions",
        "div": "<div xmlns=\"http://www.w3.org/1999/xhtml\">\n            <table>\n              <caption>Medicatietoediening. Subject: Patient, J XXX_Dezentje. Id: MBH_300_redenvanafwijken_MTD (urn:oid:2.16.840.1.113883.2.4.3.11.999.77.18629005.1), Categorie: <span title=\"toediening van medicatie (18629005 - SNOMED CT)\">toediening van medicatie</span>, Status: onbekend</caption>\n              <tbody>\n                <tr>\n                  <th>Medicatie</th>\n                  <td>OXAZEPAM ACTAVIS TABLET 10MG</td>\n                </tr>\n                <tr>\n                  <th>Datum/tijd</th>\n                  <td>${DATE, T, D, -28}T13:04:22+02:00</td>\n                </tr>\n                <tr>\n                  <th>Ondersteunende informatie</th>\n                  <td>relatie naar toedieningsafspraak met identificatie: MBH_300_redenvanafwijken_TA || 2.16.840.1.113883.2.4.3.11.999.77.422037009.1 (Id: MBH_300_redenvanafwijken_TA (urn:oid:2.16.840.1.113883.2.4.3.11.999.77.422037009.1))</td>\n                </tr>\n                <tr>\n                  <th>Dosering</th>\n                  <td>\n                    <div>Toedieningsweg: <span title=\"Oraal (9 - G-Standaard thesaurus subtabel 0007)\">Oraal</span>\n                    </div>\n                    <div>Dosering: 0 stuk</div>\n                  </td>\n                </tr>\n              </tbody>\n            </table>\n          </div>"
      },
      "extension": [ {
        "url": "http://nictiz.nl/fhir/StructureDefinition/ext-RegistrationDateTime",
        "valueDateTime": "${DATE, T, D, -28}T13:04:22+02:00"
      }, {
        "url": "http://nictiz.nl/fhir/StructureDefinition/ext-MedicationAdministration2.ReasonForDeviation",
        "valueCodeableConcept": {
          "coding": [ {
            "system": "http://snomed.info/sct",
            "code": "408366001",
            "display": "niet in staat om medicatie te gebruiken"
          } ]
        }
      }, {
        "url": "http://nictiz.nl/fhir/StructureDefinition/ext-PharmaceuticalTreatment.Identifier",
        "valueIdentifier": {
          "system": "urn:oid:2.16.840.1.113883.2.4.3.11.999.77.1.1",
          "value": "MBH_300_redenvanafwijken"
        }
      } ],
      "identifier": [ {
        "system": "urn:oid:2.16.840.1.113883.2.4.3.11.999.77.18629005.1",
        "value": "MBH_300_redenvanafwijken_MTD"
      } ],
      "status": "unknown",
      "category": {
        "coding": [ {
          "system": "http://snomed.info/sct",
          "code": "18629005",
          "display": "toediening van medicatie"
        } ]
      },
      "medicationReference": {
        "reference": "urn:uuid:80ff0804-6ab7-11ec-0000-020000000000",
        "type": "Medication",
        "display": "OXAZEPAM ACTAVIS TABLET 10MG"
      },
      "subject": {
        "reference": "urn:uuid:6b73b410-6ad6-11ec-0000-020000000000",
        "type": "Patient",
        "display": "Patient, J XXX_Dezentje"
      },
      "supportingInformation": [ {
        "type": "MedicationDispense",
        "identifier": {
          "system": "urn:oid:2.16.840.1.113883.2.4.3.11.999.77.422037009.1",
          "value": "MBH_300_redenvanafwijken_TA"
        },
        "display": "relatie naar toedieningsafspraak met identificatie: MBH_300_redenvanafwijken_TA || 2.16.840.1.113883.2.4.3.11.999.77.422037009.1"
      } ],
      "effectiveDateTime": "${DATE, T, D, -28}T13:04:22+02:00",
      "performer": [ {
        "actor": {
          "reference": "urn:uuid:a757282e-6b76-11ec-0000-020000000000",
          "type": "PractitionerRole",
          "display": "Healthcare professional (role), Jantien Toedien, Verpleegkundigen, niet nader gespecificeerd, Thuiszorg Om en Bij"
        }
      } ],
      "dosage": {
        "route": {
          "coding": [ {
            "system": "urn:oid:2.16.840.1.113883.2.4.4.9",
            "code": "9",
            "display": "Oraal"
          } ]
        },
        "dose": {
          "extension": [ {
            "url": "http://hl7.org/fhir/StructureDefinition/iso21090-PQ-translation",
            "valueQuantity": {
              "value": 0,
              "unit": "stuk",
              "system": "urn:oid:2.16.840.1.113883.2.4.4.1.900.2",
              "code": "245"
            }
          } ],
          "value": 0,
          "unit": "stuk",
          "system": "http://unitsofmeasure.org",
          "code": "1"
        }
      }
    },
    "request": {
      "method": "POST",
      "url": "MedicationAdministration"
    }
  }, {
    "fullUrl": "urn:uuid:f7cf6d5d-6adf-11ec-0000-020000000000",
    "resource": {
      "resourceType": "MedicationAdministration",
      "meta": {
        "profile": [ "http://nictiz.nl/fhir/StructureDefinition/mp-MedicationAdministration2" ]
      },
      "text": {
        "status": "extensions",
        "div": "<div xmlns=\"http://www.w3.org/1999/xhtml\">\n            <table>\n              <caption>Medicatietoediening. Subject: Patient, J XXX_Dezentje. Id: MBH_300_adhoctoediening_MTD (urn:oid:2.16.840.1.113883.2.4.3.11.999.77.18629005.1), Categorie: <span title=\"toediening van medicatie (18629005 - SNOMED CT)\">toediening van medicatie</span>, Status: onbekend</caption>\n              <tbody>\n                <tr>\n                  <th>Medicatie</th>\n                  <td>EPIPEN INJVLST 1MG/ML PEN 0,3ML</td>\n                </tr>\n                <tr>\n                  <th>Datum/tijd</th>\n                  <td>${DATE, T, D, -5}T13:05:33+02:00</td>\n                </tr>\n                <tr>\n                  <th>Dosering</th>\n                  <td>\n                    <div>Toedieningsweg: <span title=\"Intramusculair (2 - G-Standaard thesaurus subtabel 0007)\">Intramusculair</span>\n                    </div>\n                    <div>Dosering: 1 stuk</div>\n                  </td>\n                </tr>\n              </tbody>\n            </table>\n          </div>"
      },
      "extension": [ {
        "url": "http://nictiz.nl/fhir/StructureDefinition/ext-RegistrationDateTime",
        "valueDateTime": "${DATE, T, D, -5}T13:05:33+02:00"
      }, {
        "url": "http://nictiz.nl/fhir/StructureDefinition/ext-PharmaceuticalTreatment.Identifier",
        "valueIdentifier": {
          "system": "urn:oid:2.16.840.1.113883.2.4.3.11.999.77.1.1",
          "value": "MBH_300_adhoctoediening"
        }
      } ],
      "identifier": [ {
        "system": "urn:oid:2.16.840.1.113883.2.4.3.11.999.77.18629005.1",
        "value": "MBH_300_adhoctoediening_MTD"
      } ],
      "status": "unknown",
      "category": {
        "coding": [ {
          "system": "http://snomed.info/sct",
          "code": "18629005",
          "display": "toediening van medicatie"
        } ]
      },
      "medicationReference": {
        "reference": "urn:uuid:06d4d51d-6b33-11ec-0000-020000000000",
        "type": "Medication",
        "display": "EPIPEN INJVLST 1MG/ML PEN 0,3ML"
      },
      "subject": {
        "reference": "urn:uuid:6b73b410-6ad6-11ec-0000-020000000000",
        "type": "Patient",
        "display": "Patient, J XXX_Dezentje"
      },
      "effectiveDateTime": "${DATE, T, D, -5}T13:05:33+02:00",
      "performer": [ {
        "actor": {
          "reference": "urn:uuid:a757282e-6b76-11ec-0000-020000000000",
          "type": "PractitionerRole",
          "display": "Healthcare professional (role), Jantien Toedien, Verpleegkundigen, niet nader gespecificeerd, Thuiszorg Om en Bij"
        }
      } ],
      "dosage": {
        "route": {
          "coding": [ {
            "system": "urn:oid:2.16.840.1.113883.2.4.4.9",
            "code": "2",
            "display": "Intramusculair"
          } ]
        },
        "dose": {
          "extension": [ {
            "url": "http://hl7.org/fhir/StructureDefinition/iso21090-PQ-translation",
            "valueQuantity": {
              "value": 1,
              "unit": "stuk",
              "system": "urn:oid:2.16.840.1.113883.2.4.4.1.900.2",
              "code": "245"
            }
          } ],
          "value": 1,
          "unit": "stuk",
          "system": "http://unitsofmeasure.org",
          "code": "1"
        }
      }
    },
    "request": {
      "method": "POST",
      "url": "MedicationAdministration"
    }
  }, {
    "fullUrl": "urn:uuid:a144100f-6afd-11ec-0000-020000000000",
    "resource": {
      "resourceType": "MedicationAdministration",
      "meta": {
        "profile": [ "http://nictiz.nl/fhir/StructureDefinition/mp-MedicationAdministration2" ]
      },
      "text": {
        "status": "extensions",
        "div": "<div xmlns=\"http://www.w3.org/1999/xhtml\">\n            <table>\n              <caption>Medicatietoediening. Subject: Patient, J XXX_Dezentje. Id: MBH_300_afwijkendeToediener_MTD_Patient (urn:oid:2.16.840.1.113883.2.4.3.11.999.77.18629005.1), Categorie: <span title=\"toediening van medicatie (18629005 - SNOMED CT)\">toediening van medicatie</span>, Status: onbekend</caption>\n              <tbody>\n                <tr>\n                  <th>Medicatie</th>\n                  <td>MIRTAZAPINE MYLAN TABLET 15MG</td>\n                </tr>\n                <tr>\n                  <th>Datum/tijd</th>\n                  <td>${DATE, T, D, -2}T20:00:00+02:00</td>\n                </tr>\n                <tr>\n                  <th>Ondersteunende informatie</th>\n                  <td>relatie naar toedieningsafspraak met identificatie: MBH_300_afwijkendeToediener_TA || 2.16.840.1.113883.2.4.3.11.999.77.422037009.1 (Id: MBH_300_afwijkendeToediener_TA (urn:oid:2.16.840.1.113883.2.4.3.11.999.77.422037009.1))</td>\n                </tr>\n                <tr>\n                  <th>Dosering</th>\n                  <td>\n                    <div>Toedieningsweg: <span title=\"Oraal (9 - G-Standaard thesaurus subtabel 0007)\">Oraal</span>\n                    </div>\n                    <div>Dosering: 1 stuks</div>\n                  </td>\n                </tr>\n              </tbody>\n            </table>\n          </div>"
      },
      "extension": [ {
        "url": "http://nictiz.nl/fhir/StructureDefinition/ext-RegistrationDateTime",
        "valueDateTime": "${DATE, T, D, -2}T20:00:00+02:00"
      }, {
        "url": "http://nictiz.nl/fhir/StructureDefinition/ext-PharmaceuticalTreatment.Identifier",
        "valueIdentifier": {
          "system": "urn:oid:2.16.840.1.113883.2.4.3.11.999.77.1.1",
          "value": "MBH_300_afwijkendeToediener"
        }
      } ],
      "identifier": [ {
        "system": "urn:oid:2.16.840.1.113883.2.4.3.11.999.77.18629005.1",
        "value": "MBH_300_afwijkendeToediener_MTD_Patient"
      } ],
      "status": "unknown",
      "category": {
        "coding": [ {
          "system": "http://snomed.info/sct",
          "code": "18629005",
          "display": "toediening van medicatie"
        } ]
      },
      "medicationReference": {
        "reference": "urn:uuid:c5ea28e9-6ab5-11ec-0000-020000000000",
        "type": "Medication",
        "display": "MIRTAZAPINE MYLAN TABLET 15MG"
      },
      "subject": {
        "reference": "urn:uuid:6b73b410-6ad6-11ec-0000-020000000000",
        "type": "Patient",
        "display": "Patient, J XXX_Dezentje"
      },
      "supportingInformation": [ {
        "type": "MedicationDispense",
        "identifier": {
          "system": "urn:oid:2.16.840.1.113883.2.4.3.11.999.77.422037009.1",
          "value": "MBH_300_afwijkendeToediener_TA"
        },
        "display": "relatie naar toedieningsafspraak met identificatie: MBH_300_afwijkendeToediener_TA || 2.16.840.1.113883.2.4.3.11.999.77.422037009.1"
      } ],
      "effectiveDateTime": "${DATE, T, D, -2}T20:00:00+02:00",
      "performer": [ {
        "actor": {
          "reference": "urn:uuid:6b73b410-6ad6-11ec-0000-020000000000",
          "type": "Patient",
          "display": "Patient, J XXX_Dezentje"
        }
      } ],
      "dosage": {
        "route": {
          "coding": [ {
            "system": "urn:oid:2.16.840.1.113883.2.4.4.9",
            "code": "9",
            "display": "Oraal"
          } ]
        },
        "dose": {
          "extension": [ {
            "url": "http://hl7.org/fhir/StructureDefinition/iso21090-PQ-translation",
            "valueQuantity": {
              "value": 1,
              "unit": "stuks",
              "system": "urn:oid:2.16.840.1.113883.2.4.4.1.900.2",
              "code": "245"
            }
          } ],
          "value": 1,
          "unit": "stuks",
          "system": "http://unitsofmeasure.org",
          "code": "1"
        }
      }
    },
    "request": {
      "method": "POST",
      "url": "MedicationAdministration"
    }
  }, {
    "fullUrl": "urn:uuid:c31fb00f-6b5a-11ec-0000-020000000000",
    "resource": {
      "resourceType": "MedicationAdministration",
      "meta": {
        "profile": [ "http://nictiz.nl/fhir/StructureDefinition/mp-MedicationAdministration2" ]
      },
      "text": {
        "status": "extensions",
        "div": "<div xmlns=\"http://www.w3.org/1999/xhtml\">\n            <table>\n              <caption>Medicatietoediening. Subject: Patient, J XXX_Dezentje. Id: MBH_300_afwijkendeToediener_MTD_Mantelzorger (urn:oid:2.16.840.1.113883.2.4.3.11.999.77.18629005.1), Categorie: <span title=\"toediening van medicatie (18629005 - SNOMED CT)\">toediening van medicatie</span>, Status: onbekend</caption>\n              <tbody>\n                <tr>\n                  <th>Medicatie</th>\n                  <td>MIRTAZAPINE MYLAN TABLET 15MG</td>\n                </tr>\n                <tr>\n                  <th>Datum/tijd</th>\n                  <td>${DATE, T, D, -1}T20:00:00+02:00</td>\n                </tr>\n                <tr>\n                  <th>Ondersteunende informatie</th>\n                  <td>relatie naar toedieningsafspraak met identificatie: MBH_300_afwijkendeToediener_TA || 2.16.840.1.113883.2.4.3.11.999.77.422037009.1 (Id: MBH_300_afwijkendeToediener_TA (urn:oid:2.16.840.1.113883.2.4.3.11.999.77.422037009.1))</td>\n                </tr>\n                <tr>\n                  <th>Dosering</th>\n                  <td>\n                    <div>Toedieningsweg: <span title=\"Oraal (9 - G-Standaard thesaurus subtabel 0007)\">Oraal</span>\n                    </div>\n                    <div>Dosering: 1 stuks</div>\n                  </td>\n                </tr>\n              </tbody>\n            </table>\n          </div>"
      },
      "extension": [ {
        "url": "http://nictiz.nl/fhir/StructureDefinition/ext-RegistrationDateTime",
        "valueDateTime": "${DATE, T, D, -1}T20:00:00+02:00"
      }, {
        "url": "http://nictiz.nl/fhir/StructureDefinition/ext-PharmaceuticalTreatment.Identifier",
        "valueIdentifier": {
          "system": "urn:oid:2.16.840.1.113883.2.4.3.11.999.77.1.1",
          "value": "MBH_300_afwijkendeToediener"
        }
      } ],
      "identifier": [ {
        "system": "urn:oid:2.16.840.1.113883.2.4.3.11.999.77.18629005.1",
        "value": "MBH_300_afwijkendeToediener_MTD_Mantelzorger"
      } ],
      "status": "unknown",
      "category": {
        "coding": [ {
          "system": "http://snomed.info/sct",
          "code": "18629005",
          "display": "toediening van medicatie"
        } ]
      },
      "medicationReference": {
        "reference": "urn:uuid:c5ea28e9-6ab5-11ec-0000-020000000000",
        "type": "Medication",
        "display": "MIRTAZAPINE MYLAN TABLET 15MG"
      },
      "subject": {
        "reference": "urn:uuid:6b73b410-6ad6-11ec-0000-020000000000",
        "type": "Patient",
        "display": "Patient, J XXX_Dezentje"
      },
      "supportingInformation": [ {
        "type": "MedicationDispense",
        "identifier": {
          "system": "urn:oid:2.16.840.1.113883.2.4.3.11.999.77.422037009.1",
          "value": "MBH_300_afwijkendeToediener_TA"
        },
        "display": "relatie naar toedieningsafspraak met identificatie: MBH_300_afwijkendeToediener_TA || 2.16.840.1.113883.2.4.3.11.999.77.422037009.1"
      } ],
      "effectiveDateTime": "${DATE, T, D, -1}T20:00:00+02:00",
      "performer": [ {
        "actor": {
          "reference": "urn:uuid:1488fa9e-6b23-11ec-0000-020000000000",
          "type": "RelatedPerson",
          "display": "Contact person, Toos de Bakker"
        }
      } ],
      "dosage": {
        "route": {
          "coding": [ {
            "system": "urn:oid:2.16.840.1.113883.2.4.4.9",
            "code": "9",
            "display": "Oraal"
          } ]
        },
        "dose": {
          "extension": [ {
            "url": "http://hl7.org/fhir/StructureDefinition/iso21090-PQ-translation",
            "valueQuantity": {
              "value": 1,
              "unit": "stuks",
              "system": "urn:oid:2.16.840.1.113883.2.4.4.1.900.2",
              "code": "245"
            }
          } ],
          "value": 1,
          "unit": "stuks",
          "system": "http://unitsofmeasure.org",
          "code": "1"
        }
      }
    },
    "request": {
      "method": "POST",
      "url": "MedicationAdministration"
    }
  }, {
    "fullUrl": "urn:uuid:dcb7bc96-6b15-11ec-0000-020000000000",
    "resource": {
      "resourceType": "MedicationAdministration",
      "meta": {
        "profile": [ "http://nictiz.nl/fhir/StructureDefinition/mp-MedicationAdministration2" ]
      },
      "text": {
        "status": "extensions",
        "div": "<div xmlns=\"http://www.w3.org/1999/xhtml\">\n            <table>\n              <caption>Medicatietoediening. Subject: Patient, J XXX_Dezentje. Id: MBH_300_toedieningRelatieMA_MTD (urn:oid:2.16.840.1.113883.2.4.3.11.999.77.18629005.1), Categorie: <span title=\"toediening van medicatie (18629005 - SNOMED CT)\">toediening van medicatie</span>, Status: onbekend</caption>\n              <tbody>\n                <tr>\n                  <th>Medicatie</th>\n                  <td>SUPRIMAL TABLET 12,5MG</td>\n                </tr>\n                <tr>\n                  <th>Datum/tijd</th>\n                  <td>${DATE, T, D, -2}T09:10:00+02:00</td>\n                </tr>\n                <tr>\n                  <th>Dosering</th>\n                  <td>\n                    <div>Toedieningsweg: <span title=\"Oraal (9 - G-Standaard thesaurus subtabel 0007)\">Oraal</span>\n                    </div>\n                    <div>Dosering: 1 stuks</div>\n                  </td>\n                </tr>\n              </tbody>\n            </table>\n          </div>"
      },
      "extension": [ {
        "url": "http://nictiz.nl/fhir/StructureDefinition/ext-RegistrationDateTime",
        "valueDateTime": "${DATE, T, D, -2}T09:10:00+02:00"
      }, {
        "url": "http://nictiz.nl/fhir/StructureDefinition/ext-PharmaceuticalTreatment.Identifier",
        "valueIdentifier": {
          "system": "urn:oid:2.16.840.1.113883.2.4.3.11.999.77.1.1",
          "value": "MBH_300_toedieningRelatieMA"
        }
      } ],
      "identifier": [ {
        "system": "urn:oid:2.16.840.1.113883.2.4.3.11.999.77.18629005.1",
        "value": "MBH_300_toedieningRelatieMA_MTD"
      } ],
      "status": "unknown",
      "category": {
        "coding": [ {
          "system": "http://snomed.info/sct",
          "code": "18629005",
          "display": "toediening van medicatie"
        } ]
      },
      "medicationReference": {
        "reference": "urn:uuid:f17ba91d-6ab9-11ec-0000-020000000000",
        "type": "Medication",
        "display": "SUPRIMAL TABLET 12,5MG"
      },
      "subject": {
        "reference": "urn:uuid:6b73b410-6ad6-11ec-0000-020000000000",
        "type": "Patient",
        "display": "Patient, J XXX_Dezentje"
      },
      "effectiveDateTime": "${DATE, T, D, -2}T09:10:00+02:00",
      "performer": [ {
        "actor": {
          "reference": "urn:uuid:85be682e-6b50-11ec-0000-020000000000",
          "type": "PractitionerRole",
          "display": "Healthcare professional (role), Marcha van Partners, Huisartsen, niet nader gespecificeerd, Huisartsenpraktijk Itis"
        }
      } ],
      "request": {
        "extension": [ {
          "url": "http://nictiz.nl/fhir/StructureDefinition/ext-ResourceCategory",
          "valueCodeableConcept": {
            "coding": [ {
              "system": "http://snomed.info/sct",
              "code": "33633005",
              "display": "voorschrijven"
            } ]
          }
        } ],
        "type": "MedicationRequest",
        "identifier": {
          "system": "urn:oid:2.16.840.1.113883.2.4.3.11.999.77.16076005.1",
          "value": "MBH_300_toedieningRelatieMA_MA"
        },
        "display": "relatie naar medicatieafspraak met identificatie: MBH_300_toedieningRelatieMA_MA || 2.16.840.1.113883.2.4.3.11.999.77.16076005.1"
      },
      "dosage": {
        "route": {
          "coding": [ {
            "system": "urn:oid:2.16.840.1.113883.2.4.4.9",
            "code": "9",
            "display": "Oraal"
          } ]
        },
        "dose": {
          "extension": [ {
            "url": "http://hl7.org/fhir/StructureDefinition/iso21090-PQ-translation",
            "valueQuantity": {
              "value": 1,
              "unit": "stuks",
              "system": "urn:oid:2.16.840.1.113883.2.4.4.1.900.2",
              "code": "245"
            }
          } ],
          "value": 1,
          "unit": "stuks",
          "system": "http://unitsofmeasure.org",
          "code": "1"
        }
      }
    },
    "request": {
      "method": "POST",
      "url": "MedicationAdministration"
    }
  }, {
    "fullUrl": "urn:uuid:6b73b410-6ad6-11ec-0000-020000000000",
    "resource": {
      "resourceType": "Patient",
      "meta": {
        "profile": [ "http://nictiz.nl/fhir/StructureDefinition/nl-core-Patient" ]
      },
      "text": {
        "status": "extensions",
        "div": "<div xmlns=\"http://www.w3.org/1999/xhtml\">\n            <div>Id 999911077 (BSN), J XXX_Dezentje, Vrouw, 25 juli 1964</div>\n            <div>Knolweg 1003, 9999ZA STITSWERD (Privé Bezoek)</div>\n          </div>"
      },
      "identifier": [ {
        "system": "http://fhir.nl/fhir/NamingSystem/bsn",
        "value": "999911077"
      } ],
      "name": [ {
        "use": "official",
        "text": "J XXX_Dezentje",
        "family": "XXX_Dezentje",
        "_family": {
          "extension": [ {
            "url": "http://hl7.org/fhir/StructureDefinition/humanname-own-name",
            "valueString": "XXX_Dezentje"
          } ]
        },
        "given": [ "J" ],
        "_given": [ {
          "extension": [ {
            "url": "http://hl7.org/fhir/StructureDefinition/iso21090-EN-qualifier",
            "valueCode": "BR"
          } ]
        } ]
      } ],
      "gender": "female",
      "_gender": {
        "extension": [ {
          "url": "http://nictiz.nl/fhir/StructureDefinition/ext-CodeSpecification",
          "valueCodeableConcept": {
            "coding": [ {
              "system": "http://terminology.hl7.org/CodeSystem/v3-AdministrativeGender",
              "code": "F",
              "display": "Vrouw"
            } ]
          }
        } ]
      },
      "birthDate": "1964-07-25",
      "address": [ {
        "extension": [ {
          "url": "http://nictiz.nl/fhir/StructureDefinition/ext-AddressInformation.AddressType",
          "valueCodeableConcept": {
            "coding": [ {
              "system": "http://terminology.hl7.org/CodeSystem/v3-AddressUse",
              "code": "PHYS",
              "display": "Woon-/verblijfadres"
            } ]
          }
        } ],
        "use": "home",
        "type": "physical",
        "line": [ "Knolweg 1003" ],
        "_line": [ {
          "extension": [ {
            "url": "http://hl7.org/fhir/StructureDefinition/iso21090-ADXP-streetName",
            "valueString": "Knolweg"
          }, {
            "url": "http://hl7.org/fhir/StructureDefinition/iso21090-ADXP-houseNumber",
            "valueString": "1003"
          } ]
        } ],
        "district": "STITSWERD",
        "postalCode": "9999ZA"
      } ]
    },
    "request": {
      "method": "POST",
      "url": "Patient"
    }
  }, {
    "fullUrl": "urn:uuid:1488fa9e-6b23-11ec-0000-020000000000",
    "resource": {
      "resourceType": "RelatedPerson",
      "meta": {
        "profile": [ "http://nictiz.nl/fhir/StructureDefinition/nl-core-ContactPerson" ]
      },
      "text": {
        "status": "extensions",
        "div": "<div xmlns=\"http://www.w3.org/1999/xhtml\">\n            <div>Toos de Bakker</div>\n            <div>\n              <span title=\"Mantelzorger (100001 - 2.16.840.1.113883.2.4.3.11.60.40.4.23.1)\">Mantelzorger</span> van Patient, J XXX_Dezentje</div>\n          </div>"
      },
      "patient": {
        "reference": "urn:uuid:6b73b410-6ad6-11ec-0000-020000000000",
        "type": "Patient",
        "display": "Patient, J XXX_Dezentje"
      },
      "relationship": [ {
        "coding": [ {
          "system": "urn:oid:2.16.840.1.113883.2.4.3.11.60.40.4.23.1",
          "code": "100001",
          "display": "Mantelzorger"
        } ]
      } ],
      "name": [ {
        "use": "official",
        "text": "Toos de Bakker",
        "family": "de Bakker",
        "_family": {
          "extension": [ {
            "url": "http://hl7.org/fhir/StructureDefinition/humanname-own-prefix",
            "valueString": "de"
          }, {
            "url": "http://hl7.org/fhir/StructureDefinition/humanname-own-name",
            "valueString": "Bakker"
          } ]
        },
        "given": [ "Toos" ],
        "_given": [ {
          "extension": [ {
            "url": "http://hl7.org/fhir/StructureDefinition/iso21090-EN-qualifier",
            "valueCode": "BR"
          } ]
        } ]
      } ]
    },
    "request": {
      "method": "POST",
      "url": "RelatedPerson"
    }
  }, {
    "fullUrl": "urn:uuid:a757282e-6b76-11ec-0000-020000000000",
    "resource": {
      "resourceType": "PractitionerRole",
      "meta": {
        "profile": [ "http://nictiz.nl/fhir/StructureDefinition/nl-core-HealthProfessional-PractitionerRole" ]
      },
      "text": {
        "status": "extensions",
        "div": "<div xmlns=\"http://www.w3.org/1999/xhtml\">\n            <table>\n              <caption>Zorgverlenerrol. </caption>\n              <tbody>\n                <tr>\n                  <th>Zorgverlener</th>\n                  <td>\n                    <div>Healthcare professional (person), Jantien Toedien</div>\n                    <div>Healthcare provider (organization), Thuiszorg Om en Bij</div>\n                  </td>\n                </tr>\n                <tr>\n                  <th>Specialisme</th>\n                  <td>\n                    <span title=\"Verpleegkundigen, niet nader gespecificeerd (9100 - AGB-medisch specialisme)\">Verpleegkundigen, niet nader gespecificeerd</span>\n                  </td>\n                </tr>\n              </tbody>\n            </table>\n          </div>"
      },
      "practitioner": {
        "reference": "urn:uuid:f1e8c824-6b20-11ec-0000-020000000000",
        "type": "Practitioner",
        "display": "Healthcare professional (person), Jantien Toedien"
      },
      "organization": {
        "reference": "urn:uuid:b0d9956e-6a9d-11ec-0000-020000000000",
        "type": "Organization",
        "display": "Healthcare provider (organization), Thuiszorg Om en Bij"
      },
      "specialty": [ {
        "coding": [ {
          "system": "urn:oid:2.16.840.1.113883.2.4.6.7",
          "version": "2020-10-23T00:00:00",
          "code": "9100",
          "display": "Verpleegkundigen, niet nader gespecificeerd"
        } ]
      } ]
    },
    "request": {
      "method": "POST",
      "url": "PractitionerRole"
    }
  }, {
    "fullUrl": "urn:uuid:f1e8c824-6b20-11ec-0000-020000000000",
    "resource": {
      "resourceType": "Practitioner",
      "meta": {
        "profile": [ "http://nictiz.nl/fhir/StructureDefinition/nl-core-HealthProfessional-Practitioner" ]
      },
      "text": {
        "status": "extensions",
        "div": "<div xmlns=\"http://www.w3.org/1999/xhtml\">\n            <div>Id 222220000 (UZI-NR-PERS), Jantien Toedien</div>\n          </div>"
      },
      "identifier": [ {
        "system": "http://fhir.nl/fhir/NamingSystem/uzi-nr-pers",
        "value": "222220000"
      } ],
      "name": [ {
        "use": "official",
        "text": "Jantien Toedien",
        "family": "Toedien",
        "_family": {
          "extension": [ {
            "url": "http://hl7.org/fhir/StructureDefinition/humanname-own-name",
            "valueString": "Toedien"
          } ]
        },
        "given": [ "Jantien" ],
        "_given": [ {
          "extension": [ {
            "url": "http://hl7.org/fhir/StructureDefinition/iso21090-EN-qualifier",
            "valueCode": "BR"
          } ]
        } ]
      } ]
    },
    "request": {
      "method": "POST",
      "url": "Practitioner"
    }
  }, {
    "fullUrl": "urn:uuid:85be682e-6b50-11ec-0000-020000000000",
    "resource": {
      "resourceType": "PractitionerRole",
      "meta": {
        "profile": [ "http://nictiz.nl/fhir/StructureDefinition/nl-core-HealthProfessional-PractitionerRole" ]
      },
      "text": {
        "status": "extensions",
        "div": "<div xmlns=\"http://www.w3.org/1999/xhtml\">\n            <table>\n              <caption>Zorgverlenerrol. </caption>\n              <tbody>\n                <tr>\n                  <th>Zorgverlener</th>\n                  <td>\n                    <div>Healthcare professional (person), Marcha van Partners</div>\n                    <div>Healthcare provider (organization), Huisartsenpraktijk Itis</div>\n                  </td>\n                </tr>\n                <tr>\n                  <th>Specialisme</th>\n                  <td>\n                    <span title=\"Huisartsen, niet nader gespecificeerd (0100 - AGB-medisch specialisme)\">Huisartsen, niet nader gespecificeerd</span>\n                  </td>\n                </tr>\n              </tbody>\n            </table>\n          </div>"
      },
      "practitioner": {
        "reference": "urn:uuid:9162e824-6aab-11ec-0000-020000000000",
        "type": "Practitioner",
        "display": "Healthcare professional (person), Marcha van Partners"
      },
      "organization": {
        "reference": "urn:uuid:1ca6c464-6b4c-11ec-0000-020000000000",
        "type": "Organization",
        "display": "Healthcare provider (organization), Huisartsenpraktijk Itis"
      },
      "specialty": [ {
        "coding": [ {
          "system": "urn:oid:2.16.840.1.113883.2.4.6.7",
          "version": "2020-10-23T00:00:00",
          "code": "0100",
          "display": "Huisartsen, niet nader gespecificeerd"
        } ]
      } ]
    },
    "request": {
      "method": "POST",
      "url": "PractitionerRole"
    }
  }, {
    "fullUrl": "urn:uuid:9162e824-6aab-11ec-0000-020000000000",
    "resource": {
      "resourceType": "Practitioner",
      "meta": {
        "profile": [ "http://nictiz.nl/fhir/StructureDefinition/nl-core-HealthProfessional-Practitioner" ]
      },
      "text": {
        "status": "extensions",
        "div": "<div xmlns=\"http://www.w3.org/1999/xhtml\">\n            <div>Id 000001115 (UZI-NR-PERS), Marcha van Partners</div>\n          </div>"
      },
      "identifier": [ {
        "system": "http://fhir.nl/fhir/NamingSystem/uzi-nr-pers",
        "value": "000001115"
      } ],
      "name": [ {
        "use": "official",
        "text": "Marcha van Partners",
        "family": "van Partners",
        "_family": {
          "extension": [ {
            "url": "http://hl7.org/fhir/StructureDefinition/humanname-own-prefix",
            "valueString": "van"
          }, {
            "url": "http://hl7.org/fhir/StructureDefinition/humanname-own-name",
            "valueString": "Partners"
          } ]
        },
        "given": [ "Marcha" ],
        "_given": [ {
          "extension": [ {
            "url": "http://hl7.org/fhir/StructureDefinition/iso21090-EN-qualifier",
            "valueCode": "BR"
          } ]
        } ]
      } ]
    },
    "request": {
      "method": "POST",
      "url": "Practitioner"
    }
  }, {
    "fullUrl": "urn:uuid:1ca6c464-6b4c-11ec-0000-020000000000",
    "resource": {
      "resourceType": "Organization",
      "meta": {
        "profile": [ "http://nictiz.nl/fhir/StructureDefinition/nl-core-HealthcareProvider-Organization" ]
      },
      "text": {
        "status": "extensions",
        "div": "<div xmlns=\"http://www.w3.org/1999/xhtml\">\n            <table>\n              <caption>Organisatie. Id: 00005111 (URA)</caption>\n              <tbody>\n                <tr>\n                  <th>Naam</th>\n                  <td>Huisartsenpraktijk Itis</td>\n                </tr>\n                <tr>\n                  <th>Adres</th>\n                  <td>Langelaan 1, 1234ZZ Onze Stad (Werk)</td>\n                </tr>\n              </tbody>\n            </table>\n          </div>"
      },
      "identifier": [ {
        "system": "http://fhir.nl/fhir/NamingSystem/ura",
        "value": "00005111"
      } ],
      "name": "Huisartsenpraktijk Itis",
      "address": [ {
        "extension": [ {
          "url": "http://nictiz.nl/fhir/StructureDefinition/ext-AddressInformation.AddressType",
          "valueCodeableConcept": {
            "coding": [ {
              "system": "http://terminology.hl7.org/CodeSystem/v3-AddressUse",
              "code": "WP",
              "display": "Werkadres"
            } ]
          }
        } ],
        "use": "work",
        "line": [ "Langelaan 1" ],
        "_line": [ {
          "extension": [ {
            "url": "http://hl7.org/fhir/StructureDefinition/iso21090-ADXP-streetName",
            "valueString": "Langelaan"
          }, {
            "url": "http://hl7.org/fhir/StructureDefinition/iso21090-ADXP-houseNumber",
            "valueString": "1"
          } ]
        } ],
        "city": "Onze Stad",
        "postalCode": "1234ZZ"
      } ]
    },
    "request": {
      "method": "POST",
      "url": "Organization"
    }
  }, {
    "fullUrl": "urn:uuid:b0d9956e-6a9d-11ec-0000-020000000000",
    "resource": {
      "resourceType": "Organization",
      "meta": {
        "profile": [ "http://nictiz.nl/fhir/StructureDefinition/nl-core-HealthcareProvider-Organization" ]
      },
      "text": {
        "status": "extensions",
        "div": "<div xmlns=\"http://www.w3.org/1999/xhtml\">\n            <table>\n              <caption>Organisatie. Id: 11110000 (URA)</caption>\n              <tbody>\n                <tr>\n                  <th>Naam</th>\n                  <td>Thuiszorg Om en Bij</td>\n                </tr>\n                <tr>\n                  <th>Type</th>\n                  <td>\n                    <span title=\"Thuiszorg (T2 - organization-type)\">Thuiszorg</span>\n                  </td>\n                </tr>\n              </tbody>\n            </table>\n          </div>"
      },
      "identifier": [ {
        "system": "http://fhir.nl/fhir/NamingSystem/ura",
        "value": "11110000"
      } ],
      "type": [ {
        "coding": [ {
          "system": "http://nictiz.nl/fhir/NamingSystem/organization-type",
          "code": "T2",
          "display": "Thuiszorg"
        } ]
      } ],
      "name": "Thuiszorg Om en Bij"
    },
    "request": {
      "method": "POST",
      "url": "Organization"
    }
  }, {
    "fullUrl": "urn:uuid:06d4d51d-6b33-11ec-0000-020000000000",
    "resource": {
      "resourceType": "Medication",
      "meta": {
        "profile": [ "http://nictiz.nl/fhir/StructureDefinition/mp-PharmaceuticalProduct" ]
      },
      "text": {
        "status": "extensions",
        "div": "<div xmlns=\"http://www.w3.org/1999/xhtml\">\n            <table>\n              <tbody>\n                <tr>\n                  <th>Code</th>\n                  <td>\n                    <span title=\"EPIPEN INJVLST 1MG/ML PEN 0,3ML (786993 - G-Standaard HPK)\">EPIPEN INJVLST 1MG/ML PEN 0,3ML</span>\n                  </td>\n                </tr>\n              </tbody>\n            </table>\n          </div>"
      },
      "code": {
        "coding": [ {
          "system": "urn:oid:2.16.840.1.113883.2.4.4.7",
          "code": "786993",
          "display": "EPIPEN INJVLST 1MG/ML PEN 0,3ML",
          "userSelected": true
        }, {
          "system": "urn:oid:2.16.840.1.113883.2.4.4.10",
          "code": "145262",
          "display": "ADRENALINE INJVLST PEN 0,3MG=0,3ML (1MG/ML)"
        }, {
          "system": "urn:oid:2.16.840.1.113883.2.4.4.1",
          "code": "170925",
          "display": "ADRENALINE INJVLST 1MG/ML"
        } ],
        "text": "EPIPEN INJVLST 1MG/ML PEN 0,3ML"
      }
    },
    "request": {
      "method": "POST",
      "url": "Medication"
    }
  }, {
    "fullUrl": "urn:uuid:c5ea28e9-6ab5-11ec-0000-020000000000",
    "resource": {
      "resourceType": "Medication",
      "meta": {
        "profile": [ "http://nictiz.nl/fhir/StructureDefinition/mp-PharmaceuticalProduct" ]
      },
      "text": {
        "status": "extensions",
        "div": "<div xmlns=\"http://www.w3.org/1999/xhtml\">\n            <table>\n              <tbody>\n                <tr>\n                  <th>Code</th>\n                  <td>\n                    <span title=\"MIRTAZAPINE MYLAN TABLET 15MG (1680862 - G-Standaard HPK)\">MIRTAZAPINE MYLAN TABLET 15MG</span>\n                  </td>\n                </tr>\n              </tbody>\n            </table>\n          </div>"
      },
      "code": {
        "coding": [ {
          "system": "urn:oid:2.16.840.1.113883.2.4.4.7",
          "code": "1680862",
          "display": "MIRTAZAPINE MYLAN TABLET 15MG",
          "userSelected": true
        }, {
          "system": "urn:oid:2.16.840.1.113883.2.4.4.10",
          "code": "75221",
          "display": "MIRTAZAPINE TABLET 15MG"
        }, {
          "system": "urn:oid:2.16.840.1.113883.2.4.4.1",
          "code": "93521",
          "display": "MIRTAZAPINE TABLET 15MG"
        } ],
        "text": "MIRTAZAPINE MYLAN TABLET 15MG"
      }
    },
    "request": {
      "method": "POST",
      "url": "Medication"
    }
  }, {
    "fullUrl": "urn:uuid:80ff0804-6ab7-11ec-0000-020000000000",
    "resource": {
      "resourceType": "Medication",
      "meta": {
        "profile": [ "http://nictiz.nl/fhir/StructureDefinition/mp-PharmaceuticalProduct" ]
      },
      "text": {
        "status": "extensions",
        "div": "<div xmlns=\"http://www.w3.org/1999/xhtml\">\n            <table>\n              <tbody>\n                <tr>\n                  <th>Code</th>\n                  <td>\n                    <span title=\"OXAZEPAM ACTAVIS TABLET 10MG (613401 - G-Standaard HPK)\">OXAZEPAM ACTAVIS TABLET 10MG</span>\n                  </td>\n                </tr>\n              </tbody>\n            </table>\n          </div>"
      },
      "code": {
        "coding": [ {
          "system": "urn:oid:2.16.840.1.113883.2.4.4.7",
          "code": "613401",
          "display": "OXAZEPAM ACTAVIS TABLET 10MG",
          "userSelected": true
        }, {
          "system": "urn:oid:2.16.840.1.113883.2.4.4.10",
          "code": "353",
          "display": "OXAZEPAM TABLET 10MG"
        }, {
          "system": "urn:oid:2.16.840.1.113883.2.4.4.1",
          "code": "1023",
          "display": "OXAZEPAM TABLET 10MG"
        } ],
        "text": "OXAZEPAM ACTAVIS TABLET 10MG"
      }
    },
    "request": {
      "method": "POST",
      "url": "Medication"
    }
  }, {
    "fullUrl": "urn:uuid:f17ba91d-6ab9-11ec-0000-020000000000",
    "resource": {
      "resourceType": "Medication",
      "meta": {
        "profile": [ "http://nictiz.nl/fhir/StructureDefinition/mp-PharmaceuticalProduct" ]
      },
      "text": {
        "status": "extensions",
        "div": "<div xmlns=\"http://www.w3.org/1999/xhtml\">\n            <table>\n              <tbody>\n                <tr>\n                  <th>Code</th>\n                  <td>\n                    <span title=\"SUPRIMAL TABLET 12,5MG (19259 - G-Standaard HPK)\">SUPRIMAL TABLET 12,5MG</span>\n                  </td>\n                </tr>\n              </tbody>\n            </table>\n          </div>"
      },
      "code": {
        "coding": [ {
          "system": "urn:oid:2.16.840.1.113883.2.4.4.7",
          "code": "19259",
          "display": "SUPRIMAL TABLET 12,5MG",
          "userSelected": true
        }, {
          "system": "urn:oid:2.16.840.1.113883.2.4.4.10",
          "code": "450",
          "display": "MECLOZINE TABLET 12,5MG"
        }, {
          "system": "urn:oid:2.16.840.1.113883.2.4.4.1",
          "code": "1309",
          "display": "MECLOZINE TABLET 12,5MG"
        } ],
        "text": "SUPRIMAL TABLET 12,5MG"
      }
    },
    "request": {
      "method": "POST",
      "url": "Medication"
    }
  } ]
}