{
  "resourceType": "Bundle",
  "id": "mgsets-mp-smg-tst-MGB-Scenarioset6-v30",
  "type": "transaction",
  "entry": [ {
    "fullUrl": "urn:uuid:814c405d-6b56-11ec-0000-020000000000",
    "resource": {
      "resourceType": "MedicationAdministration",
      "meta": {
        "profile": [ "http://nictiz.nl/fhir/StructureDefinition/mp-MedicationAdministration2" ]
      },
      "text": {
        "status": "extensions",
        "div": "<div xmlns=\"http://www.w3.org/1999/xhtml\">\n            <table>\n              <caption>Medicatietoediening. Subject: Patient, G. XXX_Hemsbergen. Id: MBH_300_toedieningssnelheid_MTD (urn:oid:2.16.840.1.113883.2.4.3.11.999.77.18629005.1), Categorie: <span title=\"toediening van medicatie (18629005 - SNOMED CT)\">toediening van medicatie</span>, Status: onbekend</caption>\n              <tbody>\n                <tr>\n                  <th>Medicatie</th>\n                  <td>MORFINE INFVLST 5MG/ML CAS 100ML</td>\n                </tr>\n                <tr>\n                  <th>Datum/tijd</th>\n                  <td>${DATE, T, D, +8}T08:59:59+02:00</td>\n                </tr>\n                <tr>\n                  <th>Dosering</th>\n                  <td>\n                    <div>Toedieningsweg: <span title=\"parenteraal (10 - G-Standaard thesaurus subtabel 0007)\">parenteraal</span>\n                    </div>\n                    <div>Dosering: 100 milliliter</div>\n                    <div>Doseerverhouding: 0.3 ml/h</div>\n                  </td>\n                </tr>\n              </tbody>\n            </table>\n          </div>"
      },
      "extension": [ {
        "url": "http://nictiz.nl/fhir/StructureDefinition/ext-AsAgreedIndicator",
        "valueBoolean": true
      }, {
        "url": "http://nictiz.nl/fhir/StructureDefinition/ext-PharmaceuticalTreatment.Identifier",
        "valueIdentifier": {
          "system": "urn:oid:2.16.840.1.113883.2.4.3.11.999.77.1.1",
          "value": "MBH_300_toedieningssnelheid"
        }
      } ],
      "identifier": [ {
        "system": "urn:oid:2.16.840.1.113883.2.4.3.11.999.77.18629005.1",
        "value": "MBH_300_toedieningssnelheid_MTD"
      } ],
      "status": "unknown",
      "category": {
        "coding": [ {
          "system": "http://snomed.info/sct",
          "code": "18629005",
          "display": "toediening van medicatie"
        } ]
      },
      "medicationReference": {
        "reference": "urn:uuid:d4136f04-6aed-11ec-0000-020000000000",
        "type": "Medication",
        "display": "MORFINE INFVLST 5MG/ML CAS 100ML"
      },
      "subject": {
        "reference": "urn:uuid:839f5efe-6b41-11ec-0000-020000000000",
        "type": "Patient",
        "display": "Patient, G. XXX_Hemsbergen"
      },
      "effectiveDateTime": "${DATE, T, D, +8}T08:59:59+02:00",
      "performer": [ {
        "actor": {
          "reference": "urn:uuid:e0717824-6afe-11ec-0000-020000000000",
          "type": "PractitionerRole",
          "display": "Healthcare provider (organization via PractitionerRole), Huisartsenpraktijk Pulver & Partners"
        }
      } ],
      "request": {
        "extension": [ {
          "url": "http://nictiz.nl/fhir/StructureDefinition/ext-ResourceCategory",
          "valueCodeableConcept": {
            "coding": [ {
              "system": "http://snomed.info/sct",
              "code": "33633005",
              "display": "voorschrijven"
            } ]
          }
        } ],
        "type": "MedicationRequest",
        "identifier": {
          "system": "urn:oid:2.16.840.1.113883.2.4.3.11.999.77.1.1",
          "value": "MBH_300_toedieningssnelheid_MA"
        },
        "display": "relatie naar medicatieafspraak met identificatie: MBH_300_toedieningssnelheid_MA || 2.16.840.1.113883.2.4.3.11.999.77.1.1"
      },
      "dosage": {
        "route": {
          "coding": [ {
            "system": "urn:oid:2.16.840.1.113883.2.4.4.9",
            "code": "10",
            "display": "parenteraal"
          } ]
        },
        "dose": {
          "extension": [ {
            "url": "http://hl7.org/fhir/StructureDefinition/iso21090-PQ-translation",
            "valueQuantity": {
              "value": 100,
              "unit": "milliliter",
              "system": "urn:oid:2.16.840.1.113883.2.4.4.1.900.2",
              "code": "233"
            }
          } ],
          "value": 100,
          "unit": "milliliter",
          "system": "http://unitsofmeasure.org",
          "code": "ml"
        },
        "rateQuantity": {
          "value": 0.3,
          "unit": "ml/h",
          "system": "http://unitsofmeasure.org",
          "code": "ml/h"
        }
      }
    },
    "request": {
      "method": "POST",
      "url": "MedicationAdministration"
    }
  }, {
    "fullUrl": "urn:uuid:839f5efe-6b41-11ec-0000-020000000000",
    "resource": {
      "resourceType": "Patient",
      "meta": {
        "profile": [ "http://nictiz.nl/fhir/StructureDefinition/nl-core-Patient" ]
      },
      "text": {
        "status": "extensions",
        "div": "<div xmlns=\"http://www.w3.org/1999/xhtml\">\n            <div>Id 999900602 (BSN), <span title=\"Naamsamenstelling: Eigennaam\">G. XXX_Hemsbergen</span>, Vrouw, 2 november 1963</div>\n          </div>"
      },
      "identifier": [ {
        "system": "http://fhir.nl/fhir/NamingSystem/bsn",
        "value": "999900602"
      } ],
      "name": [ {
        "extension": [ {
          "url": "http://hl7.org/fhir/StructureDefinition/humanname-assembly-order",
          "valueCode": "NL1"
        } ],
        "use": "official",
        "text": "G. XXX_Hemsbergen",
        "family": "XXX_Hemsbergen",
        "_family": {
          "extension": [ {
            "url": "http://hl7.org/fhir/StructureDefinition/humanname-own-name",
            "valueString": "XXX_Hemsbergen"
          } ]
        },
        "given": [ "G." ],
        "_given": [ {
          "extension": [ {
            "url": "http://hl7.org/fhir/StructureDefinition/iso21090-EN-qualifier",
            "valueCode": "IN"
          } ]
        } ]
      } ],
      "gender": "female",
      "_gender": {
        "extension": [ {
          "url": "http://nictiz.nl/fhir/StructureDefinition/ext-CodeSpecification",
          "valueCodeableConcept": {
            "coding": [ {
              "system": "http://terminology.hl7.org/CodeSystem/v3-AdministrativeGender",
              "code": "F",
              "display": "Vrouw"
            } ]
          }
        } ]
      },
      "birthDate": "1963-11-02"
    },
    "request": {
      "method": "POST",
      "url": "Patient"
    }
  }, {
    "fullUrl": "urn:uuid:7fa869d8-6b44-11ec-0000-020000000000",
    "resource": {
      "resourceType": "Organization",
      "meta": {
        "profile": [ "http://nictiz.nl/fhir/StructureDefinition/nl-core-HealthcareProvider-Organization" ]
      },
      "text": {
        "status": "extensions",
        "div": "<div xmlns=\"http://www.w3.org/1999/xhtml\">\n            <table>\n              <caption>Organisatie. Id: 00001111 (URA)</caption>\n              <tbody>\n                <tr>\n                  <th>Naam</th>\n                  <td>Huisartsenpraktijk Pulver &amp; Partners</td>\n                </tr>\n                <tr>\n                  <th>Adres</th>\n                  <td>Dorpsstraat 1, 1234AA Ons Dorp (Werk)</td>\n                </tr>\n              </tbody>\n            </table>\n          </div>"
      },
      "identifier": [ {
        "system": "http://fhir.nl/fhir/NamingSystem/ura",
        "value": "00001111"
      } ],
      "name": "Huisartsenpraktijk Pulver & Partners",
      "address": [ {
        "extension": [ {
          "url": "http://nictiz.nl/fhir/StructureDefinition/ext-AddressInformation.AddressType",
          "valueCodeableConcept": {
            "coding": [ {
              "system": "http://terminology.hl7.org/CodeSystem/v3-AddressUse",
              "code": "WP",
              "display": "Werkadres"
            } ]
          }
        } ],
        "use": "work",
        "line": [ "Dorpsstraat 1" ],
        "_line": [ {
          "extension": [ {
            "url": "http://hl7.org/fhir/StructureDefinition/iso21090-ADXP-streetName",
            "valueString": "Dorpsstraat"
          }, {
            "url": "http://hl7.org/fhir/StructureDefinition/iso21090-ADXP-houseNumber",
            "valueString": "1"
          } ]
        } ],
        "city": "Ons Dorp",
        "postalCode": "1234AA"
      } ]
    },
    "request": {
      "method": "POST",
      "url": "Organization"
    }
  }, {
    "fullUrl": "urn:uuid:e0717824-6afe-11ec-0000-020000000000",
    "resource": {
      "resourceType": "PractitionerRole",
      "meta": {
        "profile": [ "http://nictiz.nl/fhir/StructureDefinition/nl-core-HealthProfessional-PractitionerRole" ]
      },
      "text": {
        "status": "extensions",
        "div": "<div xmlns=\"http://www.w3.org/1999/xhtml\">\n            <table>\n              <caption>Zorgverlenerrol. </caption>\n              <tbody>\n                <tr>\n                  <th>Zorgverlener</th>\n                  <td>\n                    <div/>\n                    <div>Healthcare provider (organization), Huisartsenpraktijk Pulver &amp; Partners</div>\n                  </td>\n                </tr>\n              </tbody>\n            </table>\n          </div>"
      },
      "organization": {
        "reference": "urn:uuid:7fa869d8-6b44-11ec-0000-020000000000",
        "type": "Organization",
        "display": "Healthcare provider (organization), Huisartsenpraktijk Pulver & Partners"
      }
    },
    "request": {
      "method": "POST",
      "url": "PractitionerRole"
    }
  }, {
    "fullUrl": "urn:uuid:d4136f04-6aed-11ec-0000-020000000000",
    "resource": {
      "resourceType": "Medication",
      "meta": {
        "profile": [ "http://nictiz.nl/fhir/StructureDefinition/mp-PharmaceuticalProduct" ]
      },
      "text": {
        "status": "extensions",
        "div": "<div xmlns=\"http://www.w3.org/1999/xhtml\">\n            <table>\n              <tbody>\n                <tr>\n                  <th>Code</th>\n                  <td>\n                    <span title=\"MORFINE INFVLST 5MG/ML CAS 100ML (94692 - G-Standaard PRK)\">MORFINE INFVLST 5MG/ML CAS 100ML</span>\n                  </td>\n                </tr>\n              </tbody>\n            </table>\n          </div>"
      },
      "code": {
        "coding": [ {
          "system": "urn:oid:2.16.840.1.113883.2.4.4.10",
          "code": "94692",
          "display": "MORFINE INFVLST 5MG/ML CAS 100ML",
          "userSelected": true
        }, {
          "system": "urn:oid:2.16.840.1.113883.2.4.4.1",
          "code": "134538",
          "display": "MORFINE INFVLST 5MG/ML CAS 100ML"
        } ],
        "text": "MORFINE INFVLST 5MG/ML CAS 100ML"
      }
    },
    "request": {
      "method": "POST",
      "url": "Medication"
    }
  } ]
}