{
  "resourceType": "Bundle",
  "id": "mgsets-mp-smg-tst-TA-Scenarioset3-v30",
  "type": "transaction",
  "entry": [ {
    "fullUrl": "urn:uuid:b6a2bd08-6b51-11ec-0000-020000000000",
    "resource": {
      "resourceType": "MedicationDispense",
      "meta": {
        "profile": [ "http://nictiz.nl/fhir/StructureDefinition/mp-AdministrationAgreement" ]
      },
      "text": {
        "status": "extensions",
        "div": "<div xmlns=\"http://www.w3.org/1999/xhtml\">\n            <table>\n              <caption>MedicationDispense. Subject: Patient, J. de XXX_Luzac. Id: MBH_300_stoppen_TA_start (urn:oid:2.16.840.1.113883.2.4.3.11.999.77.422037009.1), Categorie: <span title=\"toedieningsafspraak (422037009 - SNOMED CT)\">toedieningsafspraak</span>, Status: onbekend<span style=\"display: block;\">Uitvoerende: Healthcare provider (organization), Apotheek De Gulle Gaper</span>\n              </caption>\n              <tbody>\n                <tr>\n                  <th>Gebaseerd op</th>\n                  <td>relatie naar medicatieafspraak met identificatie: MBH_300_stoppen_MA_start || 2.16.840.1.113883.2.4.3.11.999.77.16076005.1 (Id: MBH_300_stoppen_MA_start (urn:oid:2.16.840.1.113883.2.4.3.11.999.77.16076005.1))</td>\n                </tr>\n                <tr>\n                  <th>Medicatie</th>\n                  <td>ASPIRINE PROTECT EC TABLET MSR 100MG</td>\n                </tr>\n                <tr>\n                  <th>Doseerinstructie</th>\n                  <td>\n                    <div>Timing: <div>eenmalig per dag</div>\n                    </div>\n                    <div>Toedieningsweg: <span title=\"Oraal (9 - G-Standaard thesaurus subtabel 0007)\">Oraal</span>\n                    </div>\n                    <div>Dosering: doseAndRate TODO</div>\n                  </td>\n                </tr>\n              </tbody>\n            </table>\n          </div>"
      },
      "extension": [ {
        "url": "http://nictiz.nl/fhir/StructureDefinition/ext-AdministrationAgreement.AdministrationAgreementDateTime",
        "valueDateTime": "${DATE, T, D, -60}T09:00:00+02:00"
      }, {
        "url": "http://nictiz.nl/fhir/StructureDefinition/ext-RenderedDosageInstruction",
        "valueString": "Vanaf T - 60 dagen, tot en met T + 220 dagen, 1 maal per dag 1 stuk, Oraal"
      }, {
        "url": "http://nictiz.nl/fhir/StructureDefinition/ext-TimeInterval.Period",
        "valuePeriod": {
          "start": "${DATE, T, D, -60}T00:00:00+02:00",
          "end": "${DATE, T, D, +220}T23:59:59+02:00"
        }
      }, {
        "url": "http://nictiz.nl/fhir/StructureDefinition/ext-PharmaceuticalTreatment.Identifier",
        "valueIdentifier": {
          "system": "urn:oid:2.16.840.1.113883.2.4.3.11.999.77.1.1",
          "value": "MBH_300_stoppen"
        }
      } ],
      "identifier": [ {
        "system": "urn:oid:2.16.840.1.113883.2.4.3.11.999.77.422037009.1",
        "value": "MBH_300_stoppen_TA_start"
      } ],
      "status": "unknown",
      "category": {
        "coding": [ {
          "system": "http://snomed.info/sct",
          "code": "422037009",
          "display": "toedieningsafspraak"
        } ]
      },
      "medicationReference": {
        "reference": "urn:uuid:e353031d-6b40-11ec-0000-020000000000",
        "type": "Medication",
        "display": "ASPIRINE PROTECT EC TABLET MSR 100MG"
      },
      "subject": {
        "reference": "urn:uuid:1c84b21e-6b37-11ec-0000-020000000000",
        "type": "Patient",
        "display": "Patient, J. de XXX_Luzac"
      },
      "performer": [ {
        "actor": {
          "reference": "urn:uuid:98d231d8-6b0c-11ec-0000-020000000000",
          "type": "Organization",
          "display": "Healthcare provider (organization), Apotheek De Gulle Gaper"
        }
      } ],
      "authorizingPrescription": [ {
        "type": "MedicationRequest",
        "identifier": {
          "system": "urn:oid:2.16.840.1.113883.2.4.3.11.999.77.16076005.1",
          "value": "MBH_300_stoppen_MA_start"
        },
        "display": "relatie naar medicatieafspraak met identificatie: MBH_300_stoppen_MA_start || 2.16.840.1.113883.2.4.3.11.999.77.16076005.1"
      } ],
      "dosageInstruction": [ {
        "timing": {
          "repeat": {
            "frequency": 1,
            "period": 1,
            "periodUnit": "d"
          }
        },
        "route": {
          "coding": [ {
            "system": "urn:oid:2.16.840.1.113883.2.4.4.9",
            "code": "9",
            "display": "Oraal"
          } ]
        },
        "doseAndRate": [ {
          "doseQuantity": {
            "extension": [ {
              "url": "http://hl7.org/fhir/StructureDefinition/iso21090-PQ-translation",
              "valueQuantity": {
                "value": 1,
                "unit": "stuk",
                "system": "urn:oid:2.16.840.1.113883.2.4.4.1.900.2",
                "code": "245"
              }
            } ],
            "value": 1,
            "unit": "stuk",
            "system": "http://unitsofmeasure.org",
            "code": "1"
          }
        } ]
      } ]
    },
    "request": {
      "method": "POST",
      "url": "MedicationDispense"
    }
  }, {
    "fullUrl": "urn:uuid:c7621d08-6ad6-11ec-0000-020000000000",
    "resource": {
      "resourceType": "MedicationDispense",
      "meta": {
        "profile": [ "http://nictiz.nl/fhir/StructureDefinition/mp-AdministrationAgreement" ]
      },
      "text": {
        "status": "extensions",
        "div": "<div xmlns=\"http://www.w3.org/1999/xhtml\">\n            <table>\n              <caption>MedicationDispense. Subject: Patient, J. de XXX_Luzac. Id: MBH_300_stoppen_TA_staken (urn:oid:2.16.840.1.113883.2.4.3.11.999.77.422037009.1), Categorie: <span title=\"toedieningsafspraak (422037009 - SNOMED CT)\">toedieningsafspraak</span>, Status: onbekend<span style=\"display: block;\">Uitvoerende: Healthcare provider (organization), Apotheek Jansen en Co</span>\n              </caption>\n              <tbody>\n                <tr>\n                  <th>Gebaseerd op</th>\n                  <td>relatie naar medicatieafspraak met identificatie: MBH_300_stoppen_MA_staken || 2.16.840.1.113883.2.4.3.11.999.77.16076005.1 (Id: MBH_300_stoppen_MA_staken (urn:oid:2.16.840.1.113883.2.4.3.11.999.77.16076005.1))</td>\n                </tr>\n                <tr>\n                  <th>Medicatie</th>\n                  <td>ASPIRINE PROTECT EC TABLET MSR 100MG</td>\n                </tr>\n                <tr>\n                  <th>Doseerinstructie</th>\n                  <td>\n                    <div>Timing: <div>eenmalig per dag</div>\n                    </div>\n                    <div>Toedieningsweg: <span title=\"Oraal (9 - G-Standaard thesaurus subtabel 0007)\">Oraal</span>\n                    </div>\n                    <div>Dosering: doseAndRate TODO</div>\n                  </td>\n                </tr>\n              </tbody>\n            </table>\n          </div>"
      },
      "extension": [ {
        "url": "http://nictiz.nl/fhir/StructureDefinition/ext-AdministrationAgreement.AdministrationAgreementDateTime",
        "valueDateTime": "${DATE, T, D, -10}T19:00:00+02:00"
      }, {
        "url": "http://nictiz.nl/fhir/StructureDefinition/ext-RenderedDosageInstruction",
        "valueString": "Vanaf T - 60 dagen, tot en met T, 1 maal per dag 1 stuk, Oraal, stopgezet"
      }, {
        "url": "http://nictiz.nl/fhir/StructureDefinition/ext-TimeInterval.Period",
        "valuePeriod": {
          "start": "${DATE, T, D, -60}T00:00:00+02:00",
          "end": "${DATE, T, D, -0}T23:59:59+02:00"
        }
      }, {
        "url": "http://nictiz.nl/fhir/StructureDefinition/ext-PharmaceuticalTreatment.Identifier",
        "valueIdentifier": {
          "system": "urn:oid:2.16.840.1.113883.2.4.3.11.999.77.1.1",
          "value": "MBH_300_stoppen"
        }
      }, {
        "url": "http://nictiz.nl/fhir/StructureDefinition/ext-RelationAdministrationAgreement",
        "valueReference": {
          "type": "MedicationDispense",
          "identifier": {
            "system": "urn:oid:2.16.840.1.113883.2.4.3.11.999.77.422037009.1",
            "value": "MBH_300_stoppen_TA_start"
          },
          "display": "relatie naar toedieningsafspraak met identificatie: MBH_300_stoppen_TA_start || 2.16.840.1.113883.2.4.3.11.999.77.422037009.1"
        }
      } ],
      "modifierExtension": [ {
        "url": "http://nictiz.nl/fhir/StructureDefinition/ext-StopType",
        "valueCodeableConcept": {
          "coding": [ {
            "system": "http://snomed.info/sct",
            "code": "410546004",
            "display": "stopgezet"
          } ]
        }
      } ],
      "identifier": [ {
        "system": "urn:oid:2.16.840.1.113883.2.4.3.11.999.77.422037009.1",
        "value": "MBH_300_stoppen_TA_staken"
      } ],
      "status": "unknown",
      "category": {
        "coding": [ {
          "system": "http://snomed.info/sct",
          "code": "422037009",
          "display": "toedieningsafspraak"
        } ]
      },
      "medicationReference": {
        "reference": "urn:uuid:e353031d-6b40-11ec-0000-020000000000",
        "type": "Medication",
        "display": "ASPIRINE PROTECT EC TABLET MSR 100MG"
      },
      "subject": {
        "reference": "urn:uuid:1c84b21e-6b37-11ec-0000-020000000000",
        "type": "Patient",
        "display": "Patient, J. de XXX_Luzac"
      },
      "performer": [ {
        "actor": {
          "reference": "urn:uuid:ed21e864-6b45-11ec-0000-020000000000",
          "type": "Organization",
          "display": "Healthcare provider (organization), Apotheek Jansen en Co"
        }
      } ],
      "authorizingPrescription": [ {
        "type": "MedicationRequest",
        "identifier": {
          "system": "urn:oid:2.16.840.1.113883.2.4.3.11.999.77.16076005.1",
          "value": "MBH_300_stoppen_MA_staken"
        },
        "display": "relatie naar medicatieafspraak met identificatie: MBH_300_stoppen_MA_staken || 2.16.840.1.113883.2.4.3.11.999.77.16076005.1"
      } ],
      "dosageInstruction": [ {
        "timing": {
          "repeat": {
            "frequency": 1,
            "period": 1,
            "periodUnit": "d"
          }
        },
        "route": {
          "coding": [ {
            "system": "urn:oid:2.16.840.1.113883.2.4.4.9",
            "code": "9",
            "display": "Oraal"
          } ]
        },
        "doseAndRate": [ {
          "doseQuantity": {
            "extension": [ {
              "url": "http://hl7.org/fhir/StructureDefinition/iso21090-PQ-translation",
              "valueQuantity": {
                "value": 1,
                "unit": "stuk",
                "system": "urn:oid:2.16.840.1.113883.2.4.4.1.900.2",
                "code": "245"
              }
            } ],
            "value": 1,
            "unit": "stuk",
            "system": "http://unitsofmeasure.org",
            "code": "1"
          }
        } ]
      } ]
    },
    "request": {
      "method": "POST",
      "url": "MedicationDispense"
    }
  }, {
    "fullUrl": "urn:uuid:6f38646a-6ae8-11ec-0000-020000000000",
    "resource": {
      "resourceType": "MedicationDispense",
      "meta": {
        "profile": [ "http://nictiz.nl/fhir/StructureDefinition/mp-AdministrationAgreement" ]
      },
      "text": {
        "status": "extensions",
        "div": "<div xmlns=\"http://www.w3.org/1999/xhtml\">\n            <table>\n              <caption>MedicationDispense. Subject: Patient, J. de XXX_Luzac. Id: MBH_300_wijzigen_verhoging_TA_start (urn:oid:2.16.840.1.113883.2.4.3.11.999.77.422037009.1), Categorie: <span title=\"toedieningsafspraak (422037009 - SNOMED CT)\">toedieningsafspraak</span>, Status: onbekend<span style=\"display: block;\">Uitvoerende: Healthcare provider (organization), Apotheek De Gulle Gaper</span>\n              </caption>\n              <tbody>\n                <tr>\n                  <th>Gebaseerd op</th>\n                  <td>relatie naar medicatieafspraak met identificatie: MBH_300_wijzigen_verhoging_MA_start || 2.16.840.1.113883.2.4.3.11.999.77.16076005.1 (Id: MBH_300_wijzigen_verhoging_MA_start (urn:oid:2.16.840.1.113883.2.4.3.11.999.77.16076005.1))</td>\n                </tr>\n                <tr>\n                  <th>Medicatie</th>\n                  <td>FUROSEMIDE SANDOZ TABLET 40MG</td>\n                </tr>\n                <tr>\n                  <th>Doseerinstructie</th>\n                  <td>\n                    <div>Timing: <div>eenmalig per dag</div>\n                    </div>\n                    <div>Toedieningsweg: <span title=\"Oraal (9 - G-Standaard thesaurus subtabel 0007)\">Oraal</span>\n                    </div>\n                    <div>Dosering: doseAndRate TODO</div>\n                  </td>\n                </tr>\n              </tbody>\n            </table>\n          </div>"
      },
      "extension": [ {
        "url": "http://nictiz.nl/fhir/StructureDefinition/ext-AdministrationAgreement.AdministrationAgreementDateTime",
        "valueDateTime": "${DATE, T, D, -21}T09:02:00+02:00"
      }, {
        "url": "http://nictiz.nl/fhir/StructureDefinition/ext-RenderedDosageInstruction",
        "valueString": "Vanaf T - 21 dagen, 1 maal per dag 1 stuk, Oraal"
      }, {
        "url": "http://nictiz.nl/fhir/StructureDefinition/ext-TimeInterval.Period",
        "valuePeriod": {
          "start": "${DATE, T, D, -21}T00:00:00+02:00"
        }
      }, {
        "url": "http://nictiz.nl/fhir/StructureDefinition/ext-PharmaceuticalTreatment.Identifier",
        "valueIdentifier": {
          "system": "urn:oid:2.16.840.1.113883.2.4.3.11.999.77.1.1",
          "value": "MBH_300_wijzigen_verhoging"
        }
      } ],
      "identifier": [ {
        "system": "urn:oid:2.16.840.1.113883.2.4.3.11.999.77.422037009.1",
        "value": "MBH_300_wijzigen_verhoging_TA_start"
      } ],
      "status": "unknown",
      "category": {
        "coding": [ {
          "system": "http://snomed.info/sct",
          "code": "422037009",
          "display": "toedieningsafspraak"
        } ]
      },
      "medicationReference": {
        "reference": "urn:uuid:ff75311d-6b1a-11ec-0000-020000000000",
        "type": "Medication",
        "display": "FUROSEMIDE SANDOZ TABLET 40MG"
      },
      "subject": {
        "reference": "urn:uuid:1c84b21e-6b37-11ec-0000-020000000000",
        "type": "Patient",
        "display": "Patient, J. de XXX_Luzac"
      },
      "performer": [ {
        "actor": {
          "reference": "urn:uuid:98d231d8-6b0c-11ec-0000-020000000000",
          "type": "Organization",
          "display": "Healthcare provider (organization), Apotheek De Gulle Gaper"
        }
      } ],
      "authorizingPrescription": [ {
        "type": "MedicationRequest",
        "identifier": {
          "system": "urn:oid:2.16.840.1.113883.2.4.3.11.999.77.16076005.1",
          "value": "MBH_300_wijzigen_verhoging_MA_start"
        },
        "display": "relatie naar medicatieafspraak met identificatie: MBH_300_wijzigen_verhoging_MA_start || 2.16.840.1.113883.2.4.3.11.999.77.16076005.1"
      } ],
      "dosageInstruction": [ {
        "timing": {
          "repeat": {
            "frequency": 1,
            "period": 1,
            "periodUnit": "d"
          }
        },
        "route": {
          "coding": [ {
            "system": "urn:oid:2.16.840.1.113883.2.4.4.9",
            "code": "9",
            "display": "Oraal"
          } ]
        },
        "doseAndRate": [ {
          "doseQuantity": {
            "extension": [ {
              "url": "http://hl7.org/fhir/StructureDefinition/iso21090-PQ-translation",
              "valueQuantity": {
                "value": 1,
                "unit": "stuk",
                "system": "urn:oid:2.16.840.1.113883.2.4.4.1.900.2",
                "code": "245"
              }
            } ],
            "value": 1,
            "unit": "stuk",
            "system": "http://unitsofmeasure.org",
            "code": "1"
          }
        } ]
      } ]
    },
    "request": {
      "method": "POST",
      "url": "MedicationDispense"
    }
  }, {
    "fullUrl": "urn:uuid:78f6df0d-6ad6-11ec-0000-020000000000",
    "resource": {
      "resourceType": "MedicationDispense",
      "meta": {
        "profile": [ "http://nictiz.nl/fhir/StructureDefinition/mp-AdministrationAgreement" ]
      },
      "text": {
        "status": "extensions",
        "div": "<div xmlns=\"http://www.w3.org/1999/xhtml\">\n            <table>\n              <caption>MedicationDispense. Subject: Patient, J. de XXX_Luzac. Id: MBH_300_wijzigen_verhoging_TA_wijzigingmetMVE (urn:oid:2.16.840.1.113883.2.4.3.11.999.77.422037009.1), Categorie: <span title=\"toedieningsafspraak (422037009 - SNOMED CT)\">toedieningsafspraak</span>, Status: onbekend<span style=\"display: block;\">Uitvoerende: Healthcare provider (organization), Apotheek De Gulle Gaper</span>\n              </caption>\n              <tbody>\n                <tr>\n                  <th>Gebaseerd op</th>\n                  <td>relatie naar medicatieafspraak met identificatie: MBH_300_wijzigen_verhoging_MA_wijzigingmetVV || 2.16.840.1.113883.2.4.3.11.999.77.16076005.1 (Id: MBH_300_wijzigen_verhoging_MA_wijzigingmetVV (urn:oid:2.16.840.1.113883.2.4.3.11.999.77.16076005.1))</td>\n                </tr>\n                <tr>\n                  <th>Medicatie</th>\n                  <td>FUROSEMIDE SANDOZ TABLET 40MG</td>\n                </tr>\n                <tr>\n                  <th>Doseerinstructie</th>\n                  <td>\n                    <div>Timing: <div>eenmalig per dag</div>\n                    </div>\n                    <div>Toedieningsweg: <span title=\"Oraal (9 - G-Standaard thesaurus subtabel 0007)\">Oraal</span>\n                    </div>\n                    <div>Dosering: doseAndRate TODO</div>\n                  </td>\n                </tr>\n              </tbody>\n            </table>\n          </div>"
      },
      "extension": [ {
        "url": "http://nictiz.nl/fhir/StructureDefinition/ext-AdministrationAgreement.AdministrationAgreementDateTime",
        "valueDateTime": "${DATE, T, D, -2}T09:02:00+02:00"
      }, {
        "url": "http://nictiz.nl/fhir/StructureDefinition/ext-RenderedDosageInstruction",
        "valueString": "Vanaf T - 2 dagen, 1 maal per dag 2 stuks, Oraal"
      }, {
        "url": "http://nictiz.nl/fhir/StructureDefinition/ext-TimeInterval.Period",
        "valuePeriod": {
          "start": "${DATE, T, D, -2}T00:00:00+02:00"
        }
      }, {
        "url": "http://nictiz.nl/fhir/StructureDefinition/ext-PharmaceuticalTreatment.Identifier",
        "valueIdentifier": {
          "system": "urn:oid:2.16.840.1.113883.2.4.3.11.999.77.1.1",
          "value": "MBH_300_wijzigen_verhoging"
        }
      }, {
        "url": "http://nictiz.nl/fhir/StructureDefinition/ext-RelationAdministrationAgreement",
        "valueReference": {
          "type": "MedicationDispense",
          "identifier": {
            "system": "urn:oid:2.16.840.1.113883.2.4.3.11.999.77.422037009.1",
            "value": "MBH_300_wijzigen_verhoging_TA_start"
          },
          "display": "relatie naar toedieningsafspraak met identificatie: MBH_300_wijzigen_verhoging_TA_start || 2.16.840.1.113883.2.4.3.11.999.77.422037009.1"
        }
      } ],
      "identifier": [ {
        "system": "urn:oid:2.16.840.1.113883.2.4.3.11.999.77.422037009.1",
        "value": "MBH_300_wijzigen_verhoging_TA_wijzigingmetMVE"
      } ],
      "status": "unknown",
      "category": {
        "coding": [ {
          "system": "http://snomed.info/sct",
          "code": "422037009",
          "display": "toedieningsafspraak"
        } ]
      },
      "medicationReference": {
        "reference": "urn:uuid:ff75311d-6b1a-11ec-0000-020000000000",
        "type": "Medication",
        "display": "FUROSEMIDE SANDOZ TABLET 40MG"
      },
      "subject": {
        "reference": "urn:uuid:1c84b21e-6b37-11ec-0000-020000000000",
        "type": "Patient",
        "display": "Patient, J. de XXX_Luzac"
      },
      "performer": [ {
        "actor": {
          "reference": "urn:uuid:98d231d8-6b0c-11ec-0000-020000000000",
          "type": "Organization",
          "display": "Healthcare provider (organization), Apotheek De Gulle Gaper"
        }
      } ],
      "authorizingPrescription": [ {
        "type": "MedicationRequest",
        "identifier": {
          "system": "urn:oid:2.16.840.1.113883.2.4.3.11.999.77.16076005.1",
          "value": "MBH_300_wijzigen_verhoging_MA_wijzigingmetVV"
        },
        "display": "relatie naar medicatieafspraak met identificatie: MBH_300_wijzigen_verhoging_MA_wijzigingmetVV || 2.16.840.1.113883.2.4.3.11.999.77.16076005.1"
      } ],
      "dosageInstruction": [ {
        "timing": {
          "repeat": {
            "frequency": 1,
            "period": 1,
            "periodUnit": "d"
          }
        },
        "route": {
          "coding": [ {
            "system": "urn:oid:2.16.840.1.113883.2.4.4.9",
            "code": "9",
            "display": "Oraal"
          } ]
        },
        "doseAndRate": [ {
          "doseQuantity": {
            "extension": [ {
              "url": "http://hl7.org/fhir/StructureDefinition/iso21090-PQ-translation",
              "valueQuantity": {
                "value": 2,
                "unit": "stuk",
                "system": "urn:oid:2.16.840.1.113883.2.4.4.1.900.2",
                "code": "245"
              }
            } ],
            "value": 2,
            "unit": "stuk",
            "system": "http://unitsofmeasure.org",
            "code": "1"
          }
        } ]
      } ]
    },
    "request": {
      "method": "POST",
      "url": "MedicationDispense"
    }
  }, {
    "fullUrl": "urn:uuid:0b0fdf0d-6af9-11ec-0000-020000000000",
    "resource": {
      "resourceType": "MedicationDispense",
      "meta": {
        "profile": [ "http://nictiz.nl/fhir/StructureDefinition/mp-AdministrationAgreement" ]
      },
      "text": {
        "status": "extensions",
        "div": "<div xmlns=\"http://www.w3.org/1999/xhtml\">\n            <table>\n              <caption>MedicationDispense. Subject: Patient, J. de XXX_Luzac. Id: MBH_300_wijzigen_verhoging_TA_techstaken (urn:oid:2.16.840.1.113883.2.4.3.11.999.77.422037009.1), Categorie: <span title=\"toedieningsafspraak (422037009 - SNOMED CT)\">toedieningsafspraak</span>, Status: onbekend<span style=\"display: block;\">Uitvoerende: Healthcare provider (organization), Apotheek Jansen en Co</span>\n              </caption>\n              <tbody>\n                <tr>\n                  <th>Gebaseerd op</th>\n                  <td>relatie naar medicatieafspraak met identificatie: MBH_300_wijzigen_verhoging_MA_techstaken || 2.16.840.1.113883.2.4.3.11.999.77.16076005.1 (Id: MBH_300_wijzigen_verhoging_MA_techstaken (urn:oid:2.16.840.1.113883.2.4.3.11.999.77.16076005.1))</td>\n                </tr>\n                <tr>\n                  <th>Medicatie</th>\n                  <td>FUROSEMIDE SANDOZ TABLET 40MG</td>\n                </tr>\n                <tr>\n                  <th>Doseerinstructie</th>\n                  <td>\n                    <div>Timing: <div>eenmalig per dag</div>\n                    </div>\n                    <div>Toedieningsweg: <span title=\"Oraal (9 - G-Standaard thesaurus subtabel 0007)\">Oraal</span>\n                    </div>\n                    <div>Dosering: doseAndRate TODO</div>\n                  </td>\n                </tr>\n              </tbody>\n            </table>\n          </div>"
      },
      "extension": [ {
        "url": "http://nictiz.nl/fhir/StructureDefinition/ext-AdministrationAgreement.AdministrationAgreementDateTime",
        "valueDateTime": "${DATE, T, D, -2}T09:02:00+02:00"
      }, {
        "url": "http://nictiz.nl/fhir/StructureDefinition/ext-RenderedDosageInstruction",
        "valueString": "Vanaf T - 21 dagen, tot en met T - 3 dagen, 1 maal per dag 1 stuk, Oraal, stopgezet"
      }, {
        "url": "http://nictiz.nl/fhir/StructureDefinition/ext-TimeInterval.Period",
        "valuePeriod": {
          "start": "${DATE, T, D, -21}T00:00:00+02:00",
          "end": "${DATE, T, D, -3}T23:59:59+02:00"
        }
      }, {
        "url": "http://nictiz.nl/fhir/StructureDefinition/ext-PharmaceuticalTreatment.Identifier",
        "valueIdentifier": {
          "system": "urn:oid:2.16.840.1.113883.2.4.3.11.999.77.1.1",
          "value": "MBH_300_wijzigen_verhoging"
        }
      }, {
        "url": "http://nictiz.nl/fhir/StructureDefinition/ext-RelationAdministrationAgreement",
        "valueReference": {
          "type": "MedicationDispense",
          "identifier": {
            "system": "urn:oid:2.16.840.1.113883.2.4.3.11.999.77.422037009.1",
            "value": "MBH_300_wijzigen_verhoging_TA_start"
          },
          "display": "relatie naar toedieningsafspraak met identificatie: MBH_300_wijzigen_verhoging_TA_start || 2.16.840.1.113883.2.4.3.11.999.77.422037009.1"
        }
      } ],
      "modifierExtension": [ {
        "url": "http://nictiz.nl/fhir/StructureDefinition/ext-StopType",
        "valueCodeableConcept": {
          "coding": [ {
            "system": "http://snomed.info/sct",
            "code": "410546004",
            "display": "stopgezet"
          } ]
        }
      } ],
      "identifier": [ {
        "system": "urn:oid:2.16.840.1.113883.2.4.3.11.999.77.422037009.1",
        "value": "MBH_300_wijzigen_verhoging_TA_techstaken"
      } ],
      "status": "unknown",
      "category": {
        "coding": [ {
          "system": "http://snomed.info/sct",
          "code": "422037009",
          "display": "toedieningsafspraak"
        } ]
      },
      "medicationReference": {
        "reference": "urn:uuid:ff75311d-6b1a-11ec-0000-020000000000",
        "type": "Medication",
        "display": "FUROSEMIDE SANDOZ TABLET 40MG"
      },
      "subject": {
        "reference": "urn:uuid:1c84b21e-6b37-11ec-0000-020000000000",
        "type": "Patient",
        "display": "Patient, J. de XXX_Luzac"
      },
      "performer": [ {
        "actor": {
          "reference": "urn:uuid:ed21e864-6b45-11ec-0000-020000000000",
          "type": "Organization",
          "display": "Healthcare provider (organization), Apotheek Jansen en Co"
        }
      } ],
      "authorizingPrescription": [ {
        "type": "MedicationRequest",
        "identifier": {
          "system": "urn:oid:2.16.840.1.113883.2.4.3.11.999.77.16076005.1",
          "value": "MBH_300_wijzigen_verhoging_MA_techstaken"
        },
        "display": "relatie naar medicatieafspraak met identificatie: MBH_300_wijzigen_verhoging_MA_techstaken || 2.16.840.1.113883.2.4.3.11.999.77.16076005.1"
      } ],
      "dosageInstruction": [ {
        "timing": {
          "repeat": {
            "frequency": 1,
            "period": 1,
            "periodUnit": "d"
          }
        },
        "route": {
          "coding": [ {
            "system": "urn:oid:2.16.840.1.113883.2.4.4.9",
            "code": "9",
            "display": "Oraal"
          } ]
        },
        "doseAndRate": [ {
          "doseQuantity": {
            "extension": [ {
              "url": "http://hl7.org/fhir/StructureDefinition/iso21090-PQ-translation",
              "valueQuantity": {
                "value": 1,
                "unit": "stuk",
                "system": "urn:oid:2.16.840.1.113883.2.4.4.1.900.2",
                "code": "245"
              }
            } ],
            "value": 1,
            "unit": "stuk",
            "system": "http://unitsofmeasure.org",
            "code": "1"
          }
        } ]
      } ]
    },
    "request": {
      "method": "POST",
      "url": "MedicationDispense"
    }
  }, {
    "fullUrl": "urn:uuid:2e4f014a-6ab9-11ec-0000-020000000000",
    "resource": {
      "resourceType": "MedicationDispense",
      "meta": {
        "profile": [ "http://nictiz.nl/fhir/StructureDefinition/mp-AdministrationAgreement" ]
      },
      "text": {
        "status": "extensions",
        "div": "<div xmlns=\"http://www.w3.org/1999/xhtml\">\n            <table>\n              <caption>MedicationDispense. Subject: Patient, J. de XXX_Luzac. Id: MBH_300_wijzigen_verlaging_TA_start (urn:oid:2.16.840.1.113883.2.4.3.11.999.77.422037009.1), Categorie: <span title=\"toedieningsafspraak (422037009 - SNOMED CT)\">toedieningsafspraak</span>, Status: onbekend<span style=\"display: block;\">Uitvoerende: Healthcare provider (organization), Apotheek De Gulle Gaper</span>\n              </caption>\n              <tbody>\n                <tr>\n                  <th>Gebaseerd op</th>\n                  <td>relatie naar medicatieafspraak met identificatie: MBH_300_wijzigen_verlaging_MA_start || 2.16.840.1.113883.2.4.3.11.999.77.16076005.1 (Id: MBH_300_wijzigen_verlaging_MA_start (urn:oid:2.16.840.1.113883.2.4.3.11.999.77.16076005.1))</td>\n                </tr>\n                <tr>\n                  <th>Medicatie</th>\n                  <td>FERROFUMARAAT TEVA TABLET 200MG</td>\n                </tr>\n                <tr>\n                  <th>Doseerinstructie</th>\n                  <td>\n                    <div>Timing: <div>eenmalig per week</div>\n                    </div>\n                    <div>Toedieningsweg: <span title=\"Oraal (9 - G-Standaard thesaurus subtabel 0007)\">Oraal</span>\n                    </div>\n                    <div>Dosering: doseAndRate TODO</div>\n                  </td>\n                </tr>\n              </tbody>\n            </table>\n          </div>"
      },
      "extension": [ {
        "url": "http://nictiz.nl/fhir/StructureDefinition/ext-AdministrationAgreement.AdministrationAgreementDateTime",
        "valueDateTime": "${DATE, T, D, -13}T09:05:00+02:00"
      }, {
        "url": "http://nictiz.nl/fhir/StructureDefinition/ext-RenderedDosageInstruction",
        "valueString": "Vanaf T - 13 dagen, tot en met T + 14 dagen, 1 maal per week 1 stuk, Oraal"
      }, {
        "url": "http://nictiz.nl/fhir/StructureDefinition/ext-TimeInterval.Period",
        "valuePeriod": {
          "start": "${DATE, T, D, -13}T00:00:00+02:00",
          "end": "${DATE, T, D, +14}T23:59:59+02:00"
        }
      }, {
        "url": "http://nictiz.nl/fhir/StructureDefinition/ext-PharmaceuticalTreatment.Identifier",
        "valueIdentifier": {
          "system": "urn:oid:2.16.840.1.113883.2.4.3.11.999.77.1.1",
          "value": "MBH_300_wijzigen_verlaging"
        }
      }, {
        "url": "http://nictiz.nl/fhir/StructureDefinition/ext-RelationAdministrationAgreement",
        "valueReference": {
          "type": "MedicationDispense",
          "identifier": {
            "system": "urn:oid:2.16.840.1.113883.2.4.3.11.999.77.422037009.1",
            "value": "MBH_300_wijzigen_verlaging_TA_start"
          },
          "display": "relatie naar toedieningsafspraak met identificatie: MBH_300_wijzigen_verlaging_TA_start || 2.16.840.1.113883.2.4.3.11.999.77.422037009.1"
        }
      } ],
      "identifier": [ {
        "system": "urn:oid:2.16.840.1.113883.2.4.3.11.999.77.422037009.1",
        "value": "MBH_300_wijzigen_verlaging_TA_start"
      } ],
      "status": "unknown",
      "category": {
        "coding": [ {
          "system": "http://snomed.info/sct",
          "code": "422037009",
          "display": "toedieningsafspraak"
        } ]
      },
      "medicationReference": {
        "reference": "urn:uuid:9d5d4604-6b4e-11ec-0000-020000000000",
        "type": "Medication",
        "display": "FERROFUMARAAT TEVA TABLET 200MG"
      },
      "subject": {
        "reference": "urn:uuid:1c84b21e-6b37-11ec-0000-020000000000",
        "type": "Patient",
        "display": "Patient, J. de XXX_Luzac"
      },
      "performer": [ {
        "actor": {
          "reference": "urn:uuid:98d231d8-6b0c-11ec-0000-020000000000",
          "type": "Organization",
          "display": "Healthcare provider (organization), Apotheek De Gulle Gaper"
        }
      } ],
      "authorizingPrescription": [ {
        "type": "MedicationRequest",
        "identifier": {
          "system": "urn:oid:2.16.840.1.113883.2.4.3.11.999.77.16076005.1",
          "value": "MBH_300_wijzigen_verlaging_MA_start"
        },
        "display": "relatie naar medicatieafspraak met identificatie: MBH_300_wijzigen_verlaging_MA_start || 2.16.840.1.113883.2.4.3.11.999.77.16076005.1"
      } ],
      "dosageInstruction": [ {
        "timing": {
          "repeat": {
            "frequency": 1,
            "period": 1,
            "periodUnit": "wk"
          }
        },
        "route": {
          "coding": [ {
            "system": "urn:oid:2.16.840.1.113883.2.4.4.9",
            "code": "9",
            "display": "Oraal"
          } ]
        },
        "doseAndRate": [ {
          "doseQuantity": {
            "extension": [ {
              "url": "http://hl7.org/fhir/StructureDefinition/iso21090-PQ-translation",
              "valueQuantity": {
                "value": 1,
                "unit": "stuk",
                "system": "urn:oid:2.16.840.1.113883.2.4.4.1.900.2",
                "code": "245"
              }
            } ],
            "value": 1,
            "unit": "stuk",
            "system": "http://unitsofmeasure.org",
            "code": "1"
          }
        } ]
      } ]
    },
    "request": {
      "method": "POST",
      "url": "MedicationDispense"
    }
  }, {
    "fullUrl": "urn:uuid:cc8ea5ca-6b51-11ec-0000-020000000000",
    "resource": {
      "resourceType": "MedicationDispense",
      "meta": {
        "profile": [ "http://nictiz.nl/fhir/StructureDefinition/mp-AdministrationAgreement" ]
      },
      "text": {
        "status": "extensions",
        "div": "<div xmlns=\"http://www.w3.org/1999/xhtml\">\n            <table>\n              <caption>MedicationDispense. Subject: Patient, J. de XXX_Luzac. Id: MBH_300_wijzigen_verlaging_TA_wijzigingzonderMVE (urn:oid:2.16.840.1.113883.2.4.3.11.999.77.422037009.1), Categorie: <span title=\"toedieningsafspraak (422037009 - SNOMED CT)\">toedieningsafspraak</span>, Status: onbekend<span style=\"display: block;\">Uitvoerende: Healthcare provider (organization), Apotheek Jansen en Co</span>\n              </caption>\n              <tbody>\n                <tr>\n                  <th>Gebaseerd op</th>\n                  <td>relatie naar medicatieafspraak met identificatie: MBH_300_wijzigen_verlaging_MA_wijzigingzonderVV || 2.16.840.1.113883.2.4.3.11.999.77.16076005.1 (Id: MBH_300_wijzigen_verlaging_MA_wijzigingzonderVV (urn:oid:2.16.840.1.113883.2.4.3.11.999.77.16076005.1))</td>\n                </tr>\n                <tr>\n                  <th>Medicatie</th>\n                  <td>FERROFUMARAAT TEVA TABLET 200MG</td>\n                </tr>\n                <tr>\n                  <th>Doseerinstructie</th>\n                  <td>\n                    <div>Timing: <div>eenmalig per week</div>\n                    </div>\n                    <div>Toedieningsweg: <span title=\"Oraal (9 - G-Standaard thesaurus subtabel 0007)\">Oraal</span>\n                    </div>\n                    <div>Dosering: doseAndRate TODO</div>\n                  </td>\n                </tr>\n              </tbody>\n            </table>\n          </div>"
      },
      "extension": [ {
        "url": "http://nictiz.nl/fhir/StructureDefinition/ext-AdministrationAgreement.AdministrationAgreementDateTime",
        "valueDateTime": "${DATE, T, D, -1}T09:10:00+02:00"
      }, {
        "url": "http://nictiz.nl/fhir/StructureDefinition/ext-RenderedDosageInstruction",
        "valueString": "Vanaf T - 1 dag, tot en met T + 14 dagen, 1 maal per week 1 stuk, Oraal"
      }, {
        "url": "http://nictiz.nl/fhir/StructureDefinition/ext-TimeInterval.Period",
        "valuePeriod": {
          "start": "${DATE, T, D, -1}T00:00:00+02:00",
          "end": "${DATE, T, D, +14}T23:59:59+02:00"
        }
      }, {
        "url": "http://nictiz.nl/fhir/StructureDefinition/ext-PharmaceuticalTreatment.Identifier",
        "valueIdentifier": {
          "system": "urn:oid:2.16.840.1.113883.2.4.3.11.999.77.1.1",
          "value": "MBH_300_wijzigen_verlaging"
        }
      }, {
        "url": "http://nictiz.nl/fhir/StructureDefinition/ext-RelationAdministrationAgreement",
        "valueReference": {
          "type": "MedicationDispense",
          "identifier": {
            "system": "urn:oid:2.16.840.1.113883.2.4.3.11.999.77.422037009.1",
            "value": "MBH_300_wijzigen_verlaging_TA_start"
          },
          "display": "relatie naar toedieningsafspraak met identificatie: MBH_300_wijzigen_verlaging_TA_start || 2.16.840.1.113883.2.4.3.11.999.77.422037009.1"
        }
      } ],
      "identifier": [ {
        "system": "urn:oid:2.16.840.1.113883.2.4.3.11.999.77.422037009.1",
        "value": "MBH_300_wijzigen_verlaging_TA_wijzigingzonderMVE"
      } ],
      "status": "unknown",
      "category": {
        "coding": [ {
          "system": "http://snomed.info/sct",
          "code": "422037009",
          "display": "toedieningsafspraak"
        } ]
      },
      "medicationReference": {
        "reference": "urn:uuid:9d5d4604-6b4e-11ec-0000-020000000000",
        "type": "Medication",
        "display": "FERROFUMARAAT TEVA TABLET 200MG"
      },
      "subject": {
        "reference": "urn:uuid:1c84b21e-6b37-11ec-0000-020000000000",
        "type": "Patient",
        "display": "Patient, J. de XXX_Luzac"
      },
      "performer": [ {
        "actor": {
          "reference": "urn:uuid:ed21e864-6b45-11ec-0000-020000000000",
          "type": "Organization",
          "display": "Healthcare provider (organization), Apotheek Jansen en Co"
        }
      } ],
      "authorizingPrescription": [ {
        "type": "MedicationRequest",
        "identifier": {
          "system": "urn:oid:2.16.840.1.113883.2.4.3.11.999.77.16076005.1",
          "value": "MBH_300_wijzigen_verlaging_MA_wijzigingzonderVV"
        },
        "display": "relatie naar medicatieafspraak met identificatie: MBH_300_wijzigen_verlaging_MA_wijzigingzonderVV || 2.16.840.1.113883.2.4.3.11.999.77.16076005.1"
      } ],
      "dosageInstruction": [ {
        "timing": {
          "repeat": {
            "frequency": 1,
            "period": 1,
            "periodUnit": "wk"
          }
        },
        "route": {
          "coding": [ {
            "system": "urn:oid:2.16.840.1.113883.2.4.4.9",
            "code": "9",
            "display": "Oraal"
          } ]
        },
        "doseAndRate": [ {
          "doseQuantity": {
            "extension": [ {
              "url": "http://hl7.org/fhir/StructureDefinition/iso21090-PQ-translation",
              "valueQuantity": {
                "value": 1,
                "unit": "stuk",
                "system": "urn:oid:2.16.840.1.113883.2.4.4.1.900.2",
                "code": "245"
              }
            } ],
            "value": 1,
            "unit": "stuk",
            "system": "http://unitsofmeasure.org",
            "code": "1"
          }
        } ]
      } ]
    },
    "request": {
      "method": "POST",
      "url": "MedicationDispense"
    }
  }, {
    "fullUrl": "urn:uuid:eeeba0aa-6b33-11ec-0000-020000000000",
    "resource": {
      "resourceType": "MedicationDispense",
      "meta": {
        "profile": [ "http://nictiz.nl/fhir/StructureDefinition/mp-AdministrationAgreement" ]
      },
      "text": {
        "status": "extensions",
        "div": "<div xmlns=\"http://www.w3.org/1999/xhtml\">\n            <table>\n              <caption>MedicationDispense. Subject: Patient, J. de XXX_Luzac. Id: MBH_300_wijzigen_verlaging_TA_techstaken (urn:oid:2.16.840.1.113883.2.4.3.11.999.77.422037009.1), Categorie: <span title=\"toedieningsafspraak (422037009 - SNOMED CT)\">toedieningsafspraak</span>, Status: onbekend<span style=\"display: block;\">Uitvoerende: Healthcare provider (organization), Apotheek Jansen en Co</span>\n              </caption>\n              <tbody>\n                <tr>\n                  <th>Gebaseerd op</th>\n                  <td>relatie naar medicatieafspraak met identificatie: MBH_300_wijzigen_verlaging_MA_techstaken || 2.16.840.1.113883.2.4.3.11.999.77.16076005.1 (Id: MBH_300_wijzigen_verlaging_MA_techstaken (urn:oid:2.16.840.1.113883.2.4.3.11.999.77.16076005.1))</td>\n                </tr>\n                <tr>\n                  <th>Medicatie</th>\n                  <td>FERROFUMARAAT TEVA TABLET 200MG</td>\n                </tr>\n                <tr>\n                  <th>Doseerinstructie</th>\n                  <td>\n                    <div>Timing: <div>2 maal per week</div>\n                    </div>\n                    <div>Toedieningsweg: <span title=\"Oraal (9 - G-Standaard thesaurus subtabel 0007)\">Oraal</span>\n                    </div>\n                    <div>Dosering: doseAndRate TODO</div>\n                  </td>\n                </tr>\n              </tbody>\n            </table>\n          </div>"
      },
      "extension": [ {
        "url": "http://nictiz.nl/fhir/StructureDefinition/ext-AdministrationAgreement.AdministrationAgreementDateTime",
        "valueDateTime": "${DATE, T, D, -1}T09:10:00+02:00"
      }, {
        "url": "http://nictiz.nl/fhir/StructureDefinition/ext-RenderedDosageInstruction",
        "valueString": "Vanaf T - 13 dagen, tot en met T - 2 dagen, 2 maal per week 1 stuk, Oraal, stopgezet"
      }, {
        "url": "http://nictiz.nl/fhir/StructureDefinition/ext-TimeInterval.Period",
        "valuePeriod": {
          "start": "${DATE, T, D, -13}T00:00:00+02:00",
          "end": "${DATE, T, D, -2}T23:59:59+02:00"
        }
      }, {
        "url": "http://nictiz.nl/fhir/StructureDefinition/ext-PharmaceuticalTreatment.Identifier",
        "valueIdentifier": {
          "system": "urn:oid:2.16.840.1.113883.2.4.3.11.999.77.1.1",
          "value": "MBH_300_wijzigen_verlaging"
        }
      } ],
      "modifierExtension": [ {
        "url": "http://nictiz.nl/fhir/StructureDefinition/ext-StopType",
        "valueCodeableConcept": {
          "coding": [ {
            "system": "http://snomed.info/sct",
            "code": "410546004",
            "display": "stopgezet"
          } ]
        }
      } ],
      "identifier": [ {
        "system": "urn:oid:2.16.840.1.113883.2.4.3.11.999.77.422037009.1",
        "value": "MBH_300_wijzigen_verlaging_TA_techstaken"
      } ],
      "status": "unknown",
      "category": {
        "coding": [ {
          "system": "http://snomed.info/sct",
          "code": "422037009",
          "display": "toedieningsafspraak"
        } ]
      },
      "medicationReference": {
        "reference": "urn:uuid:9d5d4604-6b4e-11ec-0000-020000000000",
        "type": "Medication",
        "display": "FERROFUMARAAT TEVA TABLET 200MG"
      },
      "subject": {
        "reference": "urn:uuid:1c84b21e-6b37-11ec-0000-020000000000",
        "type": "Patient",
        "display": "Patient, J. de XXX_Luzac"
      },
      "performer": [ {
        "actor": {
          "reference": "urn:uuid:ed21e864-6b45-11ec-0000-020000000000",
          "type": "Organization",
          "display": "Healthcare provider (organization), Apotheek Jansen en Co"
        }
      } ],
      "authorizingPrescription": [ {
        "type": "MedicationRequest",
        "identifier": {
          "system": "urn:oid:2.16.840.1.113883.2.4.3.11.999.77.16076005.1",
          "value": "MBH_300_wijzigen_verlaging_MA_techstaken"
        },
        "display": "relatie naar medicatieafspraak met identificatie: MBH_300_wijzigen_verlaging_MA_techstaken || 2.16.840.1.113883.2.4.3.11.999.77.16076005.1"
      } ],
      "dosageInstruction": [ {
        "timing": {
          "repeat": {
            "frequency": 2,
            "period": 1,
            "periodUnit": "wk"
          }
        },
        "route": {
          "coding": [ {
            "system": "urn:oid:2.16.840.1.113883.2.4.4.9",
            "code": "9",
            "display": "Oraal"
          } ]
        },
        "doseAndRate": [ {
          "doseQuantity": {
            "extension": [ {
              "url": "http://hl7.org/fhir/StructureDefinition/iso21090-PQ-translation",
              "valueQuantity": {
                "value": 1,
                "unit": "stuk",
                "system": "urn:oid:2.16.840.1.113883.2.4.4.1.900.2",
                "code": "245"
              }
            } ],
            "value": 1,
            "unit": "stuk",
            "system": "http://unitsofmeasure.org",
            "code": "1"
          }
        } ]
      } ]
    },
    "request": {
      "method": "POST",
      "url": "MedicationDispense"
    }
  }, {
    "fullUrl": "urn:uuid:851faf0d-6a9f-11ec-0000-020000000000",
    "resource": {
      "resourceType": "MedicationDispense",
      "meta": {
        "profile": [ "http://nictiz.nl/fhir/StructureDefinition/mp-AdministrationAgreement" ]
      },
      "text": {
        "status": "extensions",
        "div": "<div xmlns=\"http://www.w3.org/1999/xhtml\">\n            <table>\n              <caption>MedicationDispense. Subject: Patient, J. de XXX_Luzac. Id: MBH_300_onderbreken_TA_start (urn:oid:2.16.840.1.113883.2.4.3.11.999.77.422037009.1), Categorie: <span title=\"toedieningsafspraak (422037009 - SNOMED CT)\">toedieningsafspraak</span>, Status: onbekend<span style=\"display: block;\">Uitvoerende: Healthcare provider (organization), Apotheek De Gulle Gaper</span>\n              </caption>\n              <tbody>\n                <tr>\n                  <th>Gebaseerd op</th>\n                  <td>relatie naar medicatieafspraak met identificatie: MBH_300_onderbreken_MA_start || 2.16.840.1.113883.2.4.3.11.999.77.16076005.1 (Id: MBH_300_onderbreken_MA_start (urn:oid:2.16.840.1.113883.2.4.3.11.999.77.16076005.1))</td>\n                </tr>\n                <tr>\n                  <th>Medicatie</th>\n                  <td>BROXIL CAPSULE 500MG</td>\n                </tr>\n                <tr>\n                  <th>Doseerinstructie</th>\n                  <td>\n                    <div>Timing: <div>3 maal per dag</div>\n                    </div>\n                    <div>Toedieningsweg: <span title=\"Oraal (9 - G-Standaard thesaurus subtabel 0007)\">Oraal</span>\n                    </div>\n                    <div>Dosering: doseAndRate TODO</div>\n                  </td>\n                </tr>\n              </tbody>\n            </table>\n          </div>"
      },
      "extension": [ {
        "url": "http://nictiz.nl/fhir/StructureDefinition/ext-AdministrationAgreement.AdministrationAgreementDateTime",
        "valueDateTime": "${DATE, T, D, -5}T09:06:00+02:00"
      }, {
        "url": "http://nictiz.nl/fhir/StructureDefinition/ext-RenderedDosageInstruction",
        "valueString": "Vanaf T - 4 dagen, tot en met T + 5 dagen, 3 maal per dag 1 stuk, Oraal"
      }, {
        "url": "http://nictiz.nl/fhir/StructureDefinition/ext-TimeInterval.Period",
        "valuePeriod": {
          "start": "${DATE, T, D, -4}T00:00:00+02:00",
          "end": "${DATE, T, D, +5}T23:59:59+02:00"
        }
      }, {
        "url": "http://nictiz.nl/fhir/StructureDefinition/ext-PharmaceuticalTreatment.Identifier",
        "valueIdentifier": {
          "system": "urn:oid:2.16.840.1.113883.2.4.3.11.999.77.1.1",
          "value": "MBH_300_onderbreken"
        }
      } ],
      "identifier": [ {
        "system": "urn:oid:2.16.840.1.113883.2.4.3.11.999.77.422037009.1",
        "value": "MBH_300_onderbreken_TA_start"
      } ],
      "status": "unknown",
      "category": {
        "coding": [ {
          "system": "http://snomed.info/sct",
          "code": "422037009",
          "display": "toedieningsafspraak"
        } ]
      },
      "medicationReference": {
        "reference": "urn:uuid:c8dcf604-6b6b-11ec-0000-020000000000",
        "type": "Medication",
        "display": "BROXIL CAPSULE 500MG"
      },
      "subject": {
        "reference": "urn:uuid:1c84b21e-6b37-11ec-0000-020000000000",
        "type": "Patient",
        "display": "Patient, J. de XXX_Luzac"
      },
      "performer": [ {
        "actor": {
          "reference": "urn:uuid:98d231d8-6b0c-11ec-0000-020000000000",
          "type": "Organization",
          "display": "Healthcare provider (organization), Apotheek De Gulle Gaper"
        }
      } ],
      "authorizingPrescription": [ {
        "type": "MedicationRequest",
        "identifier": {
          "system": "urn:oid:2.16.840.1.113883.2.4.3.11.999.77.16076005.1",
          "value": "MBH_300_onderbreken_MA_start"
        },
        "display": "relatie naar medicatieafspraak met identificatie: MBH_300_onderbreken_MA_start || 2.16.840.1.113883.2.4.3.11.999.77.16076005.1"
      } ],
      "dosageInstruction": [ {
        "timing": {
          "repeat": {
            "frequency": 3,
            "period": 1,
            "periodUnit": "d"
          }
        },
        "route": {
          "coding": [ {
            "system": "urn:oid:2.16.840.1.113883.2.4.4.9",
            "code": "9",
            "display": "Oraal"
          } ]
        },
        "doseAndRate": [ {
          "doseQuantity": {
            "extension": [ {
              "url": "http://hl7.org/fhir/StructureDefinition/iso21090-PQ-translation",
              "valueQuantity": {
                "value": 1,
                "unit": "stuk",
                "system": "urn:oid:2.16.840.1.113883.2.4.4.1.900.2",
                "code": "245"
              }
            } ],
            "value": 1,
            "unit": "stuk",
            "system": "http://unitsofmeasure.org",
            "code": "1"
          }
        } ]
      } ]
    },
    "request": {
      "method": "POST",
      "url": "MedicationDispense"
    }
  }, {
    "fullUrl": "urn:uuid:36f3afc8-6b64-11ec-0000-020000000000",
    "resource": {
      "resourceType": "MedicationDispense",
      "meta": {
        "profile": [ "http://nictiz.nl/fhir/StructureDefinition/mp-AdministrationAgreement" ]
      },
      "text": {
        "status": "extensions",
        "div": "<div xmlns=\"http://www.w3.org/1999/xhtml\">\n            <table>\n              <caption>MedicationDispense. Subject: Patient, J. de XXX_Luzac. Id: MBH_300_onderbreken_TA_onderbreken (urn:oid:2.16.840.1.113883.2.4.3.11.999.77.422037009.1), Categorie: <span title=\"toedieningsafspraak (422037009 - SNOMED CT)\">toedieningsafspraak</span>, Status: onbekend<span style=\"display: block;\">Uitvoerende: Healthcare provider (organization), Apotheek Jansen en Co</span>\n              </caption>\n              <tbody>\n                <tr>\n                  <th>Gebaseerd op</th>\n                  <td>relatie naar medicatieafspraak met identificatie: MBH_300_onderbreken_MA_onderbreken || 2.16.840.1.113883.2.4.3.11.999.77.16076005.1 (Id: MBH_300_onderbreken_MA_onderbreken (urn:oid:2.16.840.1.113883.2.4.3.11.999.77.16076005.1))</td>\n                </tr>\n                <tr>\n                  <th>Medicatie</th>\n                  <td>BROXIL CAPSULE 500MG</td>\n                </tr>\n                <tr>\n                  <th>Doseerinstructie</th>\n                  <td>\n                    <div>Timing: <div>3 maal per dag</div>\n                    </div>\n                    <div>Toedieningsweg: <span title=\"Oraal (9 - G-Standaard thesaurus subtabel 0007)\">Oraal</span>\n                    </div>\n                    <div>Dosering: doseAndRate TODO</div>\n                  </td>\n                </tr>\n              </tbody>\n            </table>\n          </div>"
      },
      "extension": [ {
        "url": "http://nictiz.nl/fhir/StructureDefinition/ext-AdministrationAgreement.AdministrationAgreementDateTime",
        "valueDateTime": "${DATE, T, D, -1}T19:12:00+02:00"
      }, {
        "url": "http://nictiz.nl/fhir/StructureDefinition/ext-RenderedDosageInstruction",
        "valueString": "Vanaf T - 4 dagen, tot en met T - 1 dag, 3 maal per dag 1 stuk, Oraal, onderbroken"
      }, {
        "url": "http://nictiz.nl/fhir/StructureDefinition/ext-TimeInterval.Period",
        "valuePeriod": {
          "start": "${DATE, T, D, -4}T00:00:00+02:00",
          "end": "${DATE, T, D, -1}T23:59:59+02:00"
        }
      }, {
        "url": "http://nictiz.nl/fhir/StructureDefinition/ext-PharmaceuticalTreatment.Identifier",
        "valueIdentifier": {
          "system": "urn:oid:2.16.840.1.113883.2.4.3.11.999.77.1.1",
          "value": "MBH_300_onderbreken"
        }
      }, {
        "url": "http://nictiz.nl/fhir/StructureDefinition/ext-RelationAdministrationAgreement",
        "valueReference": {
          "type": "MedicationDispense",
          "identifier": {
            "system": "urn:oid:2.16.840.1.113883.2.4.3.11.999.77.422037009.1",
            "value": "MBH_300_onderbreken_TA_start"
          },
          "display": "relatie naar toedieningsafspraak met identificatie: MBH_300_onderbreken_TA_start || 2.16.840.1.113883.2.4.3.11.999.77.422037009.1"
        }
      } ],
      "modifierExtension": [ {
        "url": "http://nictiz.nl/fhir/StructureDefinition/ext-StopType",
        "valueCodeableConcept": {
          "coding": [ {
            "system": "http://snomed.info/sct",
            "code": "385655000",
            "display": "onderbroken"
          } ]
        }
      } ],
      "identifier": [ {
        "system": "urn:oid:2.16.840.1.113883.2.4.3.11.999.77.422037009.1",
        "value": "MBH_300_onderbreken_TA_onderbreken"
      } ],
      "status": "unknown",
      "category": {
        "coding": [ {
          "system": "http://snomed.info/sct",
          "code": "422037009",
          "display": "toedieningsafspraak"
        } ]
      },
      "medicationReference": {
        "reference": "urn:uuid:c8dcf604-6b6b-11ec-0000-020000000000",
        "type": "Medication",
        "display": "BROXIL CAPSULE 500MG"
      },
      "subject": {
        "reference": "urn:uuid:1c84b21e-6b37-11ec-0000-020000000000",
        "type": "Patient",
        "display": "Patient, J. de XXX_Luzac"
      },
      "performer": [ {
        "actor": {
          "reference": "urn:uuid:ed21e864-6b45-11ec-0000-020000000000",
          "type": "Organization",
          "display": "Healthcare provider (organization), Apotheek Jansen en Co"
        }
      } ],
      "authorizingPrescription": [ {
        "type": "MedicationRequest",
        "identifier": {
          "system": "urn:oid:2.16.840.1.113883.2.4.3.11.999.77.16076005.1",
          "value": "MBH_300_onderbreken_MA_onderbreken"
        },
        "display": "relatie naar medicatieafspraak met identificatie: MBH_300_onderbreken_MA_onderbreken || 2.16.840.1.113883.2.4.3.11.999.77.16076005.1"
      } ],
      "dosageInstruction": [ {
        "timing": {
          "repeat": {
            "frequency": 3,
            "period": 1,
            "periodUnit": "d"
          }
        },
        "route": {
          "coding": [ {
            "system": "urn:oid:2.16.840.1.113883.2.4.4.9",
            "code": "9",
            "display": "Oraal"
          } ]
        },
        "doseAndRate": [ {
          "doseQuantity": {
            "extension": [ {
              "url": "http://hl7.org/fhir/StructureDefinition/iso21090-PQ-translation",
              "valueQuantity": {
                "value": 1,
                "unit": "stuk",
                "system": "urn:oid:2.16.840.1.113883.2.4.4.1.900.2",
                "code": "245"
              }
            } ],
            "value": 1,
            "unit": "stuk",
            "system": "http://unitsofmeasure.org",
            "code": "1"
          }
        } ]
      } ]
    },
    "request": {
      "method": "POST",
      "url": "MedicationDispense"
    }
  }, {
    "fullUrl": "urn:uuid:2e7d7f0d-6ab9-11ec-0000-020000000000",
    "resource": {
      "resourceType": "MedicationDispense",
      "meta": {
        "profile": [ "http://nictiz.nl/fhir/StructureDefinition/mp-AdministrationAgreement" ]
      },
      "text": {
        "status": "extensions",
        "div": "<div xmlns=\"http://www.w3.org/1999/xhtml\">\n            <table>\n              <caption>MedicationDispense. Subject: Patient, J. de XXX_Luzac. Id: MBH_300_TAwijzigen_TA_start (urn:oid:2.16.840.1.113883.2.4.3.11.999.77.422037009.1), Categorie: <span title=\"toedieningsafspraak (422037009 - SNOMED CT)\">toedieningsafspraak</span>, Status: onbekend<span style=\"display: block;\">Uitvoerende: Healthcare provider (organization), Apotheek De Gulle Gaper</span>\n              </caption>\n              <tbody>\n                <tr>\n                  <th>Gebaseerd op</th>\n                  <td>relatie naar medicatieafspraak met identificatie: MBH_300_TAwijzigen_MA || 2.16.840.1.113883.2.4.3.11.999.77.16076005.1 (Id: MBH_300_TAwijzigen_MA (urn:oid:2.16.840.1.113883.2.4.3.11.999.77.16076005.1))</td>\n                </tr>\n                <tr>\n                  <th>Medicatie</th>\n                  <td>PANTOZOL TABLET MSR 40MG</td>\n                </tr>\n                <tr>\n                  <th>Doseerinstructie</th>\n                  <td>\n                    <div>Timing: <div>eenmalig per dag</div>\n                    </div>\n                    <div>Toedieningsweg: <span title=\"oraal (9 - G-Standaard thesaurus subtabel 0007)\">oraal</span>\n                    </div>\n                    <div>Dosering: doseAndRate TODO</div>\n                  </td>\n                </tr>\n              </tbody>\n            </table>\n          </div>"
      },
      "extension": [ {
        "url": "http://nictiz.nl/fhir/StructureDefinition/ext-AdministrationAgreement.AdministrationAgreementDateTime",
        "valueDateTime": "${DATE, T, D, -60}T12:30:00+02:00"
      }, {
        "url": "http://nictiz.nl/fhir/StructureDefinition/ext-RenderedDosageInstruction",
        "valueString": "Vanaf T - 60 dagen, gedurende 28 dagen, 1 maal per dag 1 stuk, oraal"
      }, {
        "url": "http://nictiz.nl/fhir/StructureDefinition/ext-TimeInterval.Period",
        "valuePeriod": {
          "extension": [ {
            "url": "http://nictiz.nl/fhir/StructureDefinition/ext-TimeInterval.Duration",
            "valueDuration": {
              "value": 28,
              "unit": "dag",
              "system": "http://unitsofmeasure.org",
              "code": "d"
            }
          } ],
          "start": "${DATE, T, D, -60}T00:00:00+02:00"
        }
      }, {
        "url": "http://nictiz.nl/fhir/StructureDefinition/ext-PharmaceuticalTreatment.Identifier",
        "valueIdentifier": {
          "system": "urn:oid:2.16.840.1.113883.2.4.3.11.999.77.1.1",
          "value": "MBH_300_TAwijzigen"
        }
      } ],
      "identifier": [ {
        "system": "urn:oid:2.16.840.1.113883.2.4.3.11.999.77.422037009.1",
        "value": "MBH_300_TAwijzigen_TA_start"
      } ],
      "status": "unknown",
      "category": {
        "coding": [ {
          "system": "http://snomed.info/sct",
          "code": "422037009",
          "display": "toedieningsafspraak"
        } ]
      },
      "medicationReference": {
        "reference": "urn:uuid:182d4f04-6ac4-11ec-0000-020000000000",
        "type": "Medication",
        "display": "PANTOZOL TABLET MSR 40MG"
      },
      "subject": {
        "reference": "urn:uuid:1c84b21e-6b37-11ec-0000-020000000000",
        "type": "Patient",
        "display": "Patient, J. de XXX_Luzac"
      },
      "performer": [ {
        "actor": {
          "reference": "urn:uuid:98d231d8-6b0c-11ec-0000-020000000000",
          "type": "Organization",
          "display": "Healthcare provider (organization), Apotheek De Gulle Gaper"
        }
      } ],
      "authorizingPrescription": [ {
        "type": "MedicationRequest",
        "identifier": {
          "system": "urn:oid:2.16.840.1.113883.2.4.3.11.999.77.16076005.1",
          "value": "MBH_300_TAwijzigen_MA"
        },
        "display": "relatie naar medicatieafspraak met identificatie: MBH_300_TAwijzigen_MA || 2.16.840.1.113883.2.4.3.11.999.77.16076005.1"
      } ],
      "dosageInstruction": [ {
        "timing": {
          "repeat": {
            "frequency": 1,
            "period": 1,
            "periodUnit": "d"
          }
        },
        "route": {
          "coding": [ {
            "system": "urn:oid:2.16.840.1.113883.2.4.4.9",
            "code": "9",
            "display": "oraal"
          } ]
        },
        "doseAndRate": [ {
          "doseQuantity": {
            "extension": [ {
              "url": "http://hl7.org/fhir/StructureDefinition/iso21090-PQ-translation",
              "valueQuantity": {
                "value": 1,
                "unit": "stuk",
                "system": "urn:oid:2.16.840.1.113883.2.4.4.1.900.2",
                "code": "245"
              }
            } ],
            "value": 1,
            "unit": "stuk",
            "system": "http://unitsofmeasure.org",
            "code": "1"
          }
        } ]
      } ]
    },
    "request": {
      "method": "POST",
      "url": "MedicationDispense"
    }
  }, {
    "fullUrl": "urn:uuid:dad9b562-6abf-11ec-0000-020000000000",
    "resource": {
      "resourceType": "MedicationDispense",
      "meta": {
        "profile": [ "http://nictiz.nl/fhir/StructureDefinition/mp-AdministrationAgreement" ]
      },
      "text": {
        "status": "extensions",
        "div": "<div xmlns=\"http://www.w3.org/1999/xhtml\">\n            <table>\n              <caption>MedicationDispense. Subject: Patient, J. de XXX_Luzac. Id: MBH_300_TAwijzigen_TA_techstaken (urn:oid:2.16.840.1.113883.2.4.3.11.999.77.422037009.1), Categorie: <span title=\"toedieningsafspraak (422037009 - SNOMED CT)\">toedieningsafspraak</span>, Status: onbekend<span style=\"display: block;\">Uitvoerende: Healthcare provider (organization), Apotheek De Gulle Gaper</span>\n              </caption>\n              <tbody>\n                <tr>\n                  <th>Gebaseerd op</th>\n                  <td>relatie naar medicatieafspraak met identificatie: MBH_300_TAwijzigen_MA || 2.16.840.1.113883.2.4.3.11.999.77.16076005.1 (Id: MBH_300_TAwijzigen_MA (urn:oid:2.16.840.1.113883.2.4.3.11.999.77.16076005.1))</td>\n                </tr>\n                <tr>\n                  <th>Medicatie</th>\n                  <td>PANTOZOL TABLET MSR 40MG</td>\n                </tr>\n                <tr>\n                  <th>Doseerinstructie</th>\n                  <td>\n                    <div>Timing: <div>eenmalig per dag</div>\n                    </div>\n                    <div>Toedieningsweg: <span title=\"Oraal (9 - G-Standaard thesaurus subtabel 0007)\">Oraal</span>\n                    </div>\n                    <div>Dosering: doseAndRate TODO</div>\n                  </td>\n                </tr>\n              </tbody>\n            </table>\n          </div>"
      },
      "extension": [ {
        "url": "http://nictiz.nl/fhir/StructureDefinition/ext-AdministrationAgreement.AdministrationAgreementDateTime",
        "valueDateTime": "${DATE, T, D, -50}T12:30:00+02:00"
      }, {
        "url": "http://nictiz.nl/fhir/StructureDefinition/ext-RenderedDosageInstruction",
        "valueString": "Vanaf T - 60 dagen, tot en met T - 51 dagen, 1 maal per dag 1 stuk, Oraal, stopgezet"
      }, {
        "url": "http://nictiz.nl/fhir/StructureDefinition/ext-TimeInterval.Period",
        "valuePeriod": {
          "start": "${DATE, T, D, -60}T00:00:00+02:00",
          "end": "${DATE, T, D, -51}T23:59:59+02:00"
        }
      }, {
        "url": "http://nictiz.nl/fhir/StructureDefinition/ext-PharmaceuticalTreatment.Identifier",
        "valueIdentifier": {
          "system": "urn:oid:2.16.840.1.113883.2.4.3.11.999.77.1.1",
          "value": "MBH_300_TAwijzigen"
        }
      }, {
        "url": "http://nictiz.nl/fhir/StructureDefinition/ext-RelationAdministrationAgreement",
        "valueReference": {
          "type": "MedicationDispense",
          "identifier": {
            "system": "urn:oid:2.16.840.1.113883.2.4.3.11.999.77.422037009.1",
            "value": "MBH_300_TAwijzigen_TA_start"
          },
          "display": "relatie naar toedieningsafspraak met identificatie: MBH_300_TAwijzigen_TA_start || 2.16.840.1.113883.2.4.3.11.999.77.422037009.1"
        }
      } ],
      "modifierExtension": [ {
        "url": "http://nictiz.nl/fhir/StructureDefinition/ext-StopType",
        "valueCodeableConcept": {
          "coding": [ {
            "system": "http://snomed.info/sct",
            "code": "410546004",
            "display": "stopgezet"
          } ]
        }
      } ],
      "identifier": [ {
        "system": "urn:oid:2.16.840.1.113883.2.4.3.11.999.77.422037009.1",
        "value": "MBH_300_TAwijzigen_TA_techstaken"
      } ],
      "status": "unknown",
      "category": {
        "coding": [ {
          "system": "http://snomed.info/sct",
          "code": "422037009",
          "display": "toedieningsafspraak"
        } ]
      },
      "medicationReference": {
        "reference": "urn:uuid:182d4f04-6ac4-11ec-0000-020000000000",
        "type": "Medication",
        "display": "PANTOZOL TABLET MSR 40MG"
      },
      "subject": {
        "reference": "urn:uuid:1c84b21e-6b37-11ec-0000-020000000000",
        "type": "Patient",
        "display": "Patient, J. de XXX_Luzac"
      },
      "performer": [ {
        "actor": {
          "reference": "urn:uuid:98d231d8-6b0c-11ec-0000-020000000000",
          "type": "Organization",
          "display": "Healthcare provider (organization), Apotheek De Gulle Gaper"
        }
      } ],
      "authorizingPrescription": [ {
        "type": "MedicationRequest",
        "identifier": {
          "system": "urn:oid:2.16.840.1.113883.2.4.3.11.999.77.16076005.1",
          "value": "MBH_300_TAwijzigen_MA"
        },
        "display": "relatie naar medicatieafspraak met identificatie: MBH_300_TAwijzigen_MA || 2.16.840.1.113883.2.4.3.11.999.77.16076005.1"
      } ],
      "dosageInstruction": [ {
        "timing": {
          "repeat": {
            "frequency": 1,
            "period": 1,
            "periodUnit": "d"
          }
        },
        "route": {
          "coding": [ {
            "system": "urn:oid:2.16.840.1.113883.2.4.4.9",
            "code": "9",
            "display": "Oraal"
          } ]
        },
        "doseAndRate": [ {
          "doseQuantity": {
            "extension": [ {
              "url": "http://hl7.org/fhir/StructureDefinition/iso21090-PQ-translation",
              "valueQuantity": {
                "value": 1,
                "unit": "stuk",
                "system": "urn:oid:2.16.840.1.113883.2.4.4.1.900.2",
                "code": "245"
              }
            } ],
            "value": 1,
            "unit": "stuk",
            "system": "http://unitsofmeasure.org",
            "code": "1"
          }
        } ]
      } ]
    },
    "request": {
      "method": "POST",
      "url": "MedicationDispense"
    }
  }, {
    "fullUrl": "urn:uuid:e5102f0d-6b23-11ec-0000-020000000000",
    "resource": {
      "resourceType": "MedicationDispense",
      "meta": {
        "profile": [ "http://nictiz.nl/fhir/StructureDefinition/mp-AdministrationAgreement" ]
      },
      "text": {
        "status": "extensions",
        "div": "<div xmlns=\"http://www.w3.org/1999/xhtml\">\n            <table>\n              <caption>MedicationDispense. Subject: Patient, J. de XXX_Luzac. Id: MBH_300_TAwijzigen_TA_anderePRK (urn:oid:2.16.840.1.113883.2.4.3.11.999.77.422037009.1), Categorie: <span title=\"toedieningsafspraak (422037009 - SNOMED CT)\">toedieningsafspraak</span>, Status: onbekend<span style=\"display: block;\">Uitvoerende: Healthcare provider (organization), Apotheek De Gulle Gaper</span>\n              </caption>\n              <tbody>\n                <tr>\n                  <th>Gebaseerd op</th>\n                  <td>relatie naar medicatieafspraak met identificatie: MBH_300_TAwijzigen_MA || 2.16.840.1.113883.2.4.3.11.999.77.16076005.1 (Id: MBH_300_TAwijzigen_MA (urn:oid:2.16.840.1.113883.2.4.3.11.999.77.16076005.1))</td>\n                </tr>\n                <tr>\n                  <th>Medicatie</th>\n                  <td>PANTOPRAZOL TABLET MSR 20MG</td>\n                </tr>\n                <tr>\n                  <th>Doseerinstructie</th>\n                  <td>\n                    <div>Timing: <div>2 maal per dag</div>\n                    </div>\n                    <div>Toedieningsweg: <span title=\"oraal (9 - G-Standaard thesaurus subtabel 0007)\">oraal</span>\n                    </div>\n                    <div>Dosering: doseAndRate TODO</div>\n                  </td>\n                </tr>\n              </tbody>\n            </table>\n          </div>"
      },
      "extension": [ {
        "url": "http://nictiz.nl/fhir/StructureDefinition/ext-AdministrationAgreement.ReasonModificationOrDiscontinuation",
        "valueCodeableConcept": {
          "coding": [ {
            "system": "http://snomed.info/sct",
            "code": "182856006",
            "display": "geneesmiddel niet voorradig"
          } ]
        }
      }, {
        "url": "http://nictiz.nl/fhir/StructureDefinition/ext-AdministrationAgreement.AdministrationAgreementDateTime",
        "valueDateTime": "${DATE, T, D, -50}T12:35:00+02:00"
      }, {
        "url": "http://nictiz.nl/fhir/StructureDefinition/ext-RenderedDosageInstruction",
        "valueString": "Vanaf T - 50 dagen, gedurende 18 dagen, 2 maal per dag 1 stuk, oraal"
      }, {
        "url": "http://nictiz.nl/fhir/StructureDefinition/ext-TimeInterval.Period",
        "valuePeriod": {
          "extension": [ {
            "url": "http://nictiz.nl/fhir/StructureDefinition/ext-TimeInterval.Duration",
            "valueDuration": {
              "value": 18,
              "unit": "dag",
              "system": "http://unitsofmeasure.org",
              "code": "d"
            }
          } ],
          "start": "${DATE, T, D, -50}T00:00:00+02:00"
        }
      }, {
        "url": "http://nictiz.nl/fhir/StructureDefinition/ext-PharmaceuticalTreatment.Identifier",
        "valueIdentifier": {
          "system": "urn:oid:2.16.840.1.113883.2.4.3.11.999.77.1.1",
          "value": "MBH_300_TAwijzigen"
        }
      }, {
        "url": "http://nictiz.nl/fhir/StructureDefinition/ext-RelationAdministrationAgreement",
        "valueReference": {
          "type": "MedicationDispense",
          "identifier": {
            "system": "urn:oid:2.16.840.1.113883.2.4.3.11.999.77.422037009.1",
            "value": "MBH_300_TAwijzigen_TA_start"
          },
          "display": "relatie naar toedieningsafspraak met identificatie: MBH_300_TAwijzigen_TA_start || 2.16.840.1.113883.2.4.3.11.999.77.422037009.1"
        }
      } ],
      "identifier": [ {
        "system": "urn:oid:2.16.840.1.113883.2.4.3.11.999.77.422037009.1",
        "value": "MBH_300_TAwijzigen_TA_anderePRK"
      } ],
      "status": "unknown",
      "category": {
        "coding": [ {
          "system": "http://snomed.info/sct",
          "code": "422037009",
          "display": "toedieningsafspraak"
        } ]
      },
      "medicationReference": {
        "reference": "urn:uuid:6b7d6104-6b5e-11ec-0000-020000000000",
        "type": "Medication",
        "display": "PANTOPRAZOL TABLET MSR 20MG"
      },
      "subject": {
        "reference": "urn:uuid:1c84b21e-6b37-11ec-0000-020000000000",
        "type": "Patient",
        "display": "Patient, J. de XXX_Luzac"
      },
      "performer": [ {
        "actor": {
          "reference": "urn:uuid:98d231d8-6b0c-11ec-0000-020000000000",
          "type": "Organization",
          "display": "Healthcare provider (organization), Apotheek De Gulle Gaper"
        }
      } ],
      "authorizingPrescription": [ {
        "type": "MedicationRequest",
        "identifier": {
          "system": "urn:oid:2.16.840.1.113883.2.4.3.11.999.77.16076005.1",
          "value": "MBH_300_TAwijzigen_MA"
        },
        "display": "relatie naar medicatieafspraak met identificatie: MBH_300_TAwijzigen_MA || 2.16.840.1.113883.2.4.3.11.999.77.16076005.1"
      } ],
      "dosageInstruction": [ {
        "timing": {
          "repeat": {
            "frequency": 2,
            "period": 1,
            "periodUnit": "d"
          }
        },
        "route": {
          "coding": [ {
            "system": "urn:oid:2.16.840.1.113883.2.4.4.9",
            "code": "9",
            "display": "oraal"
          } ]
        },
        "doseAndRate": [ {
          "doseQuantity": {
            "extension": [ {
              "url": "http://hl7.org/fhir/StructureDefinition/iso21090-PQ-translation",
              "valueQuantity": {
                "value": 1,
                "unit": "stuk",
                "system": "urn:oid:2.16.840.1.113883.2.4.4.1.900.2",
                "code": "245"
              }
            } ],
            "value": 1,
            "unit": "stuk",
            "system": "http://unitsofmeasure.org",
            "code": "1"
          }
        } ]
      } ]
    },
    "request": {
      "method": "POST",
      "url": "MedicationDispense"
    }
  }, {
    "fullUrl": "urn:uuid:b56f90ce-6b2a-11ec-0000-020000000000",
    "resource": {
      "resourceType": "MedicationDispense",
      "meta": {
        "profile": [ "http://nictiz.nl/fhir/StructureDefinition/mp-AdministrationAgreement" ]
      },
      "text": {
        "status": "extensions",
        "div": "<div xmlns=\"http://www.w3.org/1999/xhtml\">\n            <table>\n              <caption>MedicationDispense. Subject: Patient, J. de XXX_Luzac. Id: MBH_300_annuleren_TA_starten (urn:oid:2.16.840.1.113883.2.4.3.11.999.77.422037009.1), Categorie: <span title=\"toedieningsafspraak (422037009 - SNOMED CT)\">toedieningsafspraak</span>, Status: onbekend<span style=\"display: block;\">Uitvoerende: Healthcare provider (organization), Apotheek De Gulle Gaper</span>\n              </caption>\n              <tbody>\n                <tr>\n                  <th>Gebaseerd op</th>\n                  <td>relatie naar medicatieafspraak met identificatie: MBH_300_annuleren_MA_starten || 2.16.840.1.113883.2.4.3.11.999.77.16076005.1 (Id: MBH_300_annuleren_MA_starten (urn:oid:2.16.840.1.113883.2.4.3.11.999.77.16076005.1))</td>\n                </tr>\n                <tr>\n                  <th>Medicatie</th>\n                  <td>LARIAM TABLET 250MG</td>\n                </tr>\n                <tr>\n                  <th>Doseerinstructie</th>\n                  <td>\n                    <div>Timing: <div>eenmalig per week</div>\n                    </div>\n                    <div>Toedieningsweg: <span title=\"Oraal (9 - G-Standaard thesaurus subtabel 0007)\">Oraal</span>\n                    </div>\n                    <div>Dosering: doseAndRate TODO</div>\n                  </td>\n                </tr>\n              </tbody>\n            </table>\n          </div>"
      },
      "extension": [ {
        "url": "http://nictiz.nl/fhir/StructureDefinition/ext-AdministrationAgreement.AdministrationAgreementDateTime",
        "valueDateTime": "${DATE, T, D, -2}T14:10:00+02:00"
      }, {
        "url": "http://nictiz.nl/fhir/StructureDefinition/ext-RenderedDosageInstruction",
        "valueString": "Vanaf T + 7 dagen om 14:10 uur, tot en met T + 49 dagen om 14:10 uur, 1 maal per week 1 stuk, Oraal"
      }, {
        "url": "http://nictiz.nl/fhir/StructureDefinition/ext-TimeInterval.Period",
        "valuePeriod": {
          "start": "${DATE, T, D, +7}T14:10:00+02:00",
          "end": "${DATE, T, D, +49}T14:10:00+02:00"
        }
      }, {
        "url": "http://nictiz.nl/fhir/StructureDefinition/ext-PharmaceuticalTreatment.Identifier",
        "valueIdentifier": {
          "system": "urn:oid:2.16.840.1.113883.2.4.3.11.999.77.1.1",
          "value": "MBH_300_annuleren"
        }
      } ],
      "identifier": [ {
        "system": "urn:oid:2.16.840.1.113883.2.4.3.11.999.77.422037009.1",
        "value": "MBH_300_annuleren_TA_starten"
      } ],
      "status": "unknown",
      "category": {
        "coding": [ {
          "system": "http://snomed.info/sct",
          "code": "422037009",
          "display": "toedieningsafspraak"
        } ]
      },
      "medicationReference": {
        "reference": "urn:uuid:08e5b404-6b15-11ec-0000-020000000000",
        "type": "Medication",
        "display": "LARIAM TABLET 250MG"
      },
      "subject": {
        "reference": "urn:uuid:1c84b21e-6b37-11ec-0000-020000000000",
        "type": "Patient",
        "display": "Patient, J. de XXX_Luzac"
      },
      "performer": [ {
        "actor": {
          "reference": "urn:uuid:98d231d8-6b0c-11ec-0000-020000000000",
          "type": "Organization",
          "display": "Healthcare provider (organization), Apotheek De Gulle Gaper"
        }
      } ],
      "authorizingPrescription": [ {
        "type": "MedicationRequest",
        "identifier": {
          "system": "urn:oid:2.16.840.1.113883.2.4.3.11.999.77.16076005.1",
          "value": "MBH_300_annuleren_MA_starten"
        },
        "display": "relatie naar medicatieafspraak met identificatie: MBH_300_annuleren_MA_starten || 2.16.840.1.113883.2.4.3.11.999.77.16076005.1"
      } ],
      "dosageInstruction": [ {
        "timing": {
          "repeat": {
            "frequency": 1,
            "period": 1,
            "periodUnit": "wk"
          }
        },
        "route": {
          "coding": [ {
            "system": "urn:oid:2.16.840.1.113883.2.4.4.9",
            "code": "9",
            "display": "Oraal"
          } ]
        },
        "doseAndRate": [ {
          "doseQuantity": {
            "extension": [ {
              "url": "http://hl7.org/fhir/StructureDefinition/iso21090-PQ-translation",
              "valueQuantity": {
                "value": 1,
                "unit": "stuk",
                "system": "urn:oid:2.16.840.1.113883.2.4.4.1.900.2",
                "code": "245"
              }
            } ],
            "value": 1,
            "unit": "stuk",
            "system": "http://unitsofmeasure.org",
            "code": "1"
          }
        } ]
      } ]
    },
    "request": {
      "method": "POST",
      "url": "MedicationDispense"
    }
  }, {
    "fullUrl": "urn:uuid:00820b3e-6b42-11ec-0000-020000000000",
    "resource": {
      "resourceType": "MedicationDispense",
      "meta": {
        "profile": [ "http://nictiz.nl/fhir/StructureDefinition/mp-AdministrationAgreement" ]
      },
      "text": {
        "status": "extensions",
        "div": "<div xmlns=\"http://www.w3.org/1999/xhtml\">\n            <table>\n              <caption>MedicationDispense. Subject: Patient, J. de XXX_Luzac. Id: MBH_300_annuleren_TA_geannuleerd (urn:oid:2.16.840.1.113883.2.4.3.11.999.77.422037009.1), Categorie: <span title=\"toedieningsafspraak (422037009 - SNOMED CT)\">toedieningsafspraak</span>, Status: onbekend<span style=\"display: block;\">Uitvoerende: Healthcare provider (organization), Apotheek De Gulle Gaper</span>\n              </caption>\n              <tbody>\n                <tr>\n                  <th>Gebaseerd op</th>\n                  <td>relatie naar medicatieafspraak met identificatie: MBG_300_annuleren_MA_geannuleerd || 2.16.840.1.113883.2.4.3.11.999.77.16076005.1 (Id: MBG_300_annuleren_MA_geannuleerd (urn:oid:2.16.840.1.113883.2.4.3.11.999.77.16076005.1))</td>\n                </tr>\n                <tr>\n                  <th>Medicatie</th>\n                  <td>LARIAM TABLET 250MG</td>\n                </tr>\n                <tr>\n                  <th>Doseerinstructie</th>\n                  <td>\n                    <div>Timing: <div>eenmalig per week</div>\n                    </div>\n                    <div>Toedieningsweg: <span title=\"Oraal (9 - G-Standaard thesaurus subtabel 0007)\">Oraal</span>\n                    </div>\n                    <div>Dosering: doseAndRate TODO</div>\n                  </td>\n                </tr>\n              </tbody>\n            </table>\n          </div>"
      },
      "extension": [ {
        "url": "http://nictiz.nl/fhir/StructureDefinition/ext-AdministrationAgreement.AdministrationAgreementDateTime",
        "valueDateTime": "${DATE, T, D, -1}T14:10:00+02:00"
      }, {
        "url": "http://nictiz.nl/fhir/StructureDefinition/ext-RenderedDosageInstruction",
        "valueString": "Vanaf T + 7 dagen om 14:10 uur, tot en met T + 7 dagen om 14:10 uur, 1 maal per week 1 stuk, Oraal, geannuleerd"
      }, {
        "url": "http://nictiz.nl/fhir/StructureDefinition/ext-TimeInterval.Period",
        "valuePeriod": {
          "start": "${DATE, T, D, +7}T14:10:00+02:00",
          "end": "${DATE, T, D, +7}T14:10:00+02:00"
        }
      }, {
        "url": "http://nictiz.nl/fhir/StructureDefinition/ext-PharmaceuticalTreatment.Identifier",
        "valueIdentifier": {
          "system": "urn:oid:2.16.840.1.113883.2.4.3.11.999.77.1.1",
          "value": "MBH_300_annuleren"
        }
      }, {
        "url": "http://nictiz.nl/fhir/StructureDefinition/ext-RelationAdministrationAgreement",
        "valueReference": {
          "type": "MedicationDispense",
          "identifier": {
            "system": "urn:oid:2.16.840.1.113883.2.4.3.11.999.77.422037009.1",
            "value": "MBH_300_annuleren_TA_starten"
          },
          "display": "relatie naar toedieningsafspraak met identificatie: MBH_300_annuleren_TA_starten || 2.16.840.1.113883.2.4.3.11.999.77.422037009.1"
        }
      } ],
      "modifierExtension": [ {
        "url": "http://nictiz.nl/fhir/StructureDefinition/ext-StopType",
        "valueCodeableConcept": {
          "coding": [ {
            "system": "http://snomed.info/sct",
            "code": "89925002",
            "display": "geannuleerd"
          } ]
        }
      } ],
      "identifier": [ {
        "system": "urn:oid:2.16.840.1.113883.2.4.3.11.999.77.422037009.1",
        "value": "MBH_300_annuleren_TA_geannuleerd"
      } ],
      "status": "unknown",
      "category": {
        "coding": [ {
          "system": "http://snomed.info/sct",
          "code": "422037009",
          "display": "toedieningsafspraak"
        } ]
      },
      "medicationReference": {
        "reference": "urn:uuid:08e5b404-6b15-11ec-0000-020000000000",
        "type": "Medication",
        "display": "LARIAM TABLET 250MG"
      },
      "subject": {
        "reference": "urn:uuid:1c84b21e-6b37-11ec-0000-020000000000",
        "type": "Patient",
        "display": "Patient, J. de XXX_Luzac"
      },
      "performer": [ {
        "actor": {
          "reference": "urn:uuid:98d231d8-6b0c-11ec-0000-020000000000",
          "type": "Organization",
          "display": "Healthcare provider (organization), Apotheek De Gulle Gaper"
        }
      } ],
      "authorizingPrescription": [ {
        "type": "MedicationRequest",
        "identifier": {
          "system": "urn:oid:2.16.840.1.113883.2.4.3.11.999.77.16076005.1",
          "value": "MBG_300_annuleren_MA_geannuleerd"
        },
        "display": "relatie naar medicatieafspraak met identificatie: MBG_300_annuleren_MA_geannuleerd || 2.16.840.1.113883.2.4.3.11.999.77.16076005.1"
      } ],
      "dosageInstruction": [ {
        "timing": {
          "repeat": {
            "frequency": 1,
            "period": 1,
            "periodUnit": "wk"
          }
        },
        "route": {
          "coding": [ {
            "system": "urn:oid:2.16.840.1.113883.2.4.4.9",
            "code": "9",
            "display": "Oraal"
          } ]
        },
        "doseAndRate": [ {
          "doseQuantity": {
            "extension": [ {
              "url": "http://hl7.org/fhir/StructureDefinition/iso21090-PQ-translation",
              "valueQuantity": {
                "value": 1,
                "unit": "stuk",
                "system": "urn:oid:2.16.840.1.113883.2.4.4.1.900.2",
                "code": "245"
              }
            } ],
            "value": 1,
            "unit": "stuk",
            "system": "http://unitsofmeasure.org",
            "code": "1"
          }
        } ]
      } ]
    },
    "request": {
      "method": "POST",
      "url": "MedicationDispense"
    }
  }, {
    "fullUrl": "urn:uuid:cd31ff0d-6b49-11ec-0000-020000000000",
    "resource": {
      "resourceType": "MedicationDispense",
      "meta": {
        "profile": [ "http://nictiz.nl/fhir/StructureDefinition/mp-AdministrationAgreement" ]
      },
      "text": {
        "status": "extensions",
        "div": "<div xmlns=\"http://www.w3.org/1999/xhtml\">\n            <table>\n              <caption>MedicationDispense. Subject: Patient, J. de XXX_Luzac. Id: MBH_300_stoppen_parallele_TA_TA_start_GDS (urn:oid:2.16.840.1.113883.2.4.3.11.999.77.422037009.1), Categorie: <span title=\"toedieningsafspraak (422037009 - SNOMED CT)\">toedieningsafspraak</span>, Status: onbekend<span style=\"display: block;\">Uitvoerende: Healthcare provider (organization), Apotheek De Gulle Gaper</span>\n              </caption>\n              <tbody>\n                <tr>\n                  <th>Gebaseerd op</th>\n                  <td>relatie naar medicatieafspraak met identificatie: MBH_300_stoppen_parallele_TA_MA_start || 2.16.840.1.113883.2.4.3.11.999.77.16076005.1 (Id: MBH_300_stoppen_parallele_TA_MA_start (urn:oid:2.16.840.1.113883.2.4.3.11.999.77.16076005.1))</td>\n                </tr>\n                <tr>\n                  <th>Medicatie</th>\n                  <td>PANTOZOL TABLET MSR 40MG</td>\n                </tr>\n                <tr>\n                  <th>Doseerinstructie</th>\n                  <td>\n                    <div>Timing: <div>eenmalig per dag, MORN</div>\n                    </div>\n                    <div>Toedieningsweg: <span title=\"Oraal (9 - G-Standaard thesaurus subtabel 0007)\">Oraal</span>\n                    </div>\n                    <div>Dosering: doseAndRate TODO</div>\n                  </td>\n                </tr>\n              </tbody>\n            </table>\n          </div>"
      },
      "extension": [ {
        "url": "http://nictiz.nl/fhir/StructureDefinition/ext-AdministrationAgreement.AdministrationAgreementDateTime",
        "valueDateTime": "${DATE, T, D, -15}T10:15:00+02:00"
      }, {
        "url": "http://nictiz.nl/fhir/StructureDefinition/ext-RenderedDosageInstruction",
        "valueString": "Vanaf T - 14 dagen, gedurende 28 dagen, 1 maal per dag 1 stuk 's ochtends, Oraal"
      }, {
        "url": "http://nictiz.nl/fhir/StructureDefinition/ext-TimeInterval.Period",
        "valuePeriod": {
          "extension": [ {
            "url": "http://nictiz.nl/fhir/StructureDefinition/ext-TimeInterval.Duration",
            "valueDuration": {
              "value": 28,
              "unit": "dag",
              "system": "http://unitsofmeasure.org",
              "code": "d"
            }
          } ],
          "start": "${DATE, T, D, -14}T00:00:00+02:00"
        }
      }, {
        "url": "http://nictiz.nl/fhir/StructureDefinition/ext-PharmaceuticalTreatment.Identifier",
        "valueIdentifier": {
          "system": "urn:oid:2.16.840.1.113883.2.4.3.11.999.77.1.1",
          "value": "MBH_300_stoppen_parallele_TA"
        }
      }, {
        "url": "http://nictiz.nl/fhir/StructureDefinition/ext-MedicationDispense.DistributionForm",
        "valueCodeableConcept": {
          "coding": [ {
            "system": "urn:oid:2.16.840.1.113883.2.4.3.11.60.20.77.5.3.8",
            "code": "1",
            "display": "GDS"
          } ]
        }
      } ],
      "identifier": [ {
        "system": "urn:oid:2.16.840.1.113883.2.4.3.11.999.77.422037009.1",
        "value": "MBH_300_stoppen_parallele_TA_TA_start_GDS"
      } ],
      "status": "unknown",
      "category": {
        "coding": [ {
          "system": "http://snomed.info/sct",
          "code": "422037009",
          "display": "toedieningsafspraak"
        } ]
      },
      "medicationReference": {
        "reference": "urn:uuid:182d4f04-6ac4-11ec-0000-020000000000",
        "type": "Medication",
        "display": "PANTOZOL TABLET MSR 40MG"
      },
      "subject": {
        "reference": "urn:uuid:1c84b21e-6b37-11ec-0000-020000000000",
        "type": "Patient",
        "display": "Patient, J. de XXX_Luzac"
      },
      "performer": [ {
        "actor": {
          "reference": "urn:uuid:98d231d8-6b0c-11ec-0000-020000000000",
          "type": "Organization",
          "display": "Healthcare provider (organization), Apotheek De Gulle Gaper"
        }
      } ],
      "authorizingPrescription": [ {
        "type": "MedicationRequest",
        "identifier": {
          "system": "urn:oid:2.16.840.1.113883.2.4.3.11.999.77.16076005.1",
          "value": "MBH_300_stoppen_parallele_TA_MA_start"
        },
        "display": "relatie naar medicatieafspraak met identificatie: MBH_300_stoppen_parallele_TA_MA_start || 2.16.840.1.113883.2.4.3.11.999.77.16076005.1"
      } ],
      "dosageInstruction": [ {
        "timing": {
          "repeat": {
            "frequency": 1,
            "period": 1,
            "periodUnit": "d",
            "when": [ "MORN" ]
          }
        },
        "route": {
          "coding": [ {
            "system": "urn:oid:2.16.840.1.113883.2.4.4.9",
            "code": "9",
            "display": "Oraal"
          } ]
        },
        "doseAndRate": [ {
          "doseQuantity": {
            "extension": [ {
              "url": "http://hl7.org/fhir/StructureDefinition/iso21090-PQ-translation",
              "valueQuantity": {
                "value": 1,
                "unit": "stuk",
                "system": "urn:oid:2.16.840.1.113883.2.4.4.1.900.2",
                "code": "245"
              }
            } ],
            "value": 1,
            "unit": "stuk",
            "system": "http://unitsofmeasure.org",
            "code": "1"
          }
        } ]
      } ]
    },
    "request": {
      "method": "POST",
      "url": "MedicationDispense"
    }
  }, {
    "fullUrl": "urn:uuid:dc1ba93a-6b37-11ec-0000-020000000000",
    "resource": {
      "resourceType": "MedicationDispense",
      "meta": {
        "profile": [ "http://nictiz.nl/fhir/StructureDefinition/mp-AdministrationAgreement" ]
      },
      "text": {
        "status": "extensions",
        "div": "<div xmlns=\"http://www.w3.org/1999/xhtml\">\n            <table>\n              <caption>MedicationDispense. Subject: Patient, J. de XXX_Luzac. Id: MBH_300_stoppen_parallele_TA_TA_start_zonodig (urn:oid:2.16.840.1.113883.2.4.3.11.999.77.422037009.1), Categorie: <span title=\"toedieningsafspraak (422037009 - SNOMED CT)\">toedieningsafspraak</span>, Status: onbekend<span style=\"display: block;\">Uitvoerende: Healthcare provider (organization), Apotheek De Gulle Gaper</span>\n              </caption>\n              <tbody>\n                <tr>\n                  <th>Gebaseerd op</th>\n                  <td>relatie naar medicatieafspraak met identificatie: MBH_300_stoppen_parallele_TA_MA_start || 2.16.840.1.113883.2.4.3.11.999.77.16076005.1 (Id: MBH_300_stoppen_parallele_TA_MA_start (urn:oid:2.16.840.1.113883.2.4.3.11.999.77.16076005.1))</td>\n                </tr>\n                <tr>\n                  <th>Medicatie</th>\n                  <td>PANTOZOL TABLET MSR 40MG</td>\n                </tr>\n                <tr>\n                  <th>Doseerinstructie</th>\n                  <td>\n                    <div>Timing: <div>eenmalig per dag, EVE</div>\n                    </div>\n                    <div>Zo nodig: <span title=\"Bij pijn (1028 - nhg-tabel-25-gebruiksvoorschrift#aanvullend-numeriek)\">Bij pijn</span>\n                    </div>\n                    <div>Toedieningsweg: <span title=\"oraal (9 - G-Standaard thesaurus subtabel 0007)\">oraal</span>\n                    </div>\n                    <div>Dosering: doseAndRate TODO</div>\n                  </td>\n                </tr>\n              </tbody>\n            </table>\n          </div>"
      },
      "extension": [ {
        "url": "http://nictiz.nl/fhir/StructureDefinition/ext-AdministrationAgreement.AdministrationAgreementDateTime",
        "valueDateTime": "${DATE, T, D, -15}T10:15:00+02:00"
      }, {
        "url": "http://nictiz.nl/fhir/StructureDefinition/ext-RenderedDosageInstruction",
        "valueString": "Vanaf T - 14 dagen, gedurende 28 dagen, Bij pijn 1 maal per dag 1 stuk 's avonds, oraal"
      }, {
        "url": "http://nictiz.nl/fhir/StructureDefinition/ext-TimeInterval.Period",
        "valuePeriod": {
          "extension": [ {
            "url": "http://nictiz.nl/fhir/StructureDefinition/ext-TimeInterval.Duration",
            "valueDuration": {
              "value": 28,
              "unit": "dag",
              "system": "http://unitsofmeasure.org",
              "code": "d"
            }
          } ],
          "start": "${DATE, T, D, -14}T00:00:00+02:00"
        }
      }, {
        "url": "http://nictiz.nl/fhir/StructureDefinition/ext-PharmaceuticalTreatment.Identifier",
        "valueIdentifier": {
          "system": "urn:oid:2.16.840.1.113883.2.4.3.11.999.77.1.1",
          "value": "MBH_300_stoppen_parallele_TA"
        }
      } ],
      "identifier": [ {
        "system": "urn:oid:2.16.840.1.113883.2.4.3.11.999.77.422037009.1",
        "value": "MBH_300_stoppen_parallele_TA_TA_start_zonodig"
      } ],
      "status": "unknown",
      "category": {
        "coding": [ {
          "system": "http://snomed.info/sct",
          "code": "422037009",
          "display": "toedieningsafspraak"
        } ]
      },
      "medicationReference": {
        "reference": "urn:uuid:182d4f04-6ac4-11ec-0000-020000000000",
        "type": "Medication",
        "display": "PANTOZOL TABLET MSR 40MG"
      },
      "subject": {
        "reference": "urn:uuid:1c84b21e-6b37-11ec-0000-020000000000",
        "type": "Patient",
        "display": "Patient, J. de XXX_Luzac"
      },
      "performer": [ {
        "actor": {
          "reference": "urn:uuid:98d231d8-6b0c-11ec-0000-020000000000",
          "type": "Organization",
          "display": "Healthcare provider (organization), Apotheek De Gulle Gaper"
        }
      } ],
      "authorizingPrescription": [ {
        "type": "MedicationRequest",
        "identifier": {
          "system": "urn:oid:2.16.840.1.113883.2.4.3.11.999.77.16076005.1",
          "value": "MBH_300_stoppen_parallele_TA_MA_start"
        },
        "display": "relatie naar medicatieafspraak met identificatie: MBH_300_stoppen_parallele_TA_MA_start || 2.16.840.1.113883.2.4.3.11.999.77.16076005.1"
      } ],
      "dosageInstruction": [ {
        "timing": {
          "repeat": {
            "frequency": 1,
            "period": 1,
            "periodUnit": "d",
            "when": [ "EVE" ]
          }
        },
        "asNeededCodeableConcept": {
          "coding": [ {
            "system": "https://referentiemodel.nhg.org/tabellen/nhg-tabel-25-gebruiksvoorschrift#aanvullend-numeriek",
            "code": "1028",
            "display": "Bij pijn"
          } ]
        },
        "route": {
          "coding": [ {
            "system": "urn:oid:2.16.840.1.113883.2.4.4.9",
            "code": "9",
            "display": "oraal"
          } ]
        },
        "doseAndRate": [ {
          "doseQuantity": {
            "extension": [ {
              "url": "http://hl7.org/fhir/StructureDefinition/iso21090-PQ-translation",
              "valueQuantity": {
                "value": 1,
                "unit": "stuk",
                "system": "urn:oid:2.16.840.1.113883.2.4.4.1.900.2",
                "code": "245"
              }
            } ],
            "value": 1,
            "unit": "stuk",
            "system": "http://unitsofmeasure.org",
            "code": "1"
          }
        } ]
      } ]
    },
    "request": {
      "method": "POST",
      "url": "MedicationDispense"
    }
  }, {
    "fullUrl": "urn:uuid:bcf68f0d-6aa6-11ec-0000-020000000000",
    "resource": {
      "resourceType": "MedicationDispense",
      "meta": {
        "profile": [ "http://nictiz.nl/fhir/StructureDefinition/mp-AdministrationAgreement" ]
      },
      "text": {
        "status": "extensions",
        "div": "<div xmlns=\"http://www.w3.org/1999/xhtml\">\n            <table>\n              <caption>MedicationDispense. Subject: Patient, J. de XXX_Luzac. Id: MBH_300_stoppen_parallele_TA_TA_stop_zonodig (urn:oid:2.16.840.1.113883.2.4.3.11.999.77.422037009.1), Categorie: <span title=\"toedieningsafspraak (422037009 - SNOMED CT)\">toedieningsafspraak</span>, Status: onbekend<span style=\"display: block;\">Uitvoerende: Healthcare provider (organization), Apotheek De Gulle Gaper</span>\n              </caption>\n              <tbody>\n                <tr>\n                  <th>Gebaseerd op</th>\n                  <td>relatie naar medicatieafspraak met identificatie: MBH_300_stoppen_parallele_TA_MA_start || 2.16.840.1.113883.2.4.3.11.999.77.16076005.1 (Id: MBH_300_stoppen_parallele_TA_MA_start (urn:oid:2.16.840.1.113883.2.4.3.11.999.77.16076005.1))</td>\n                </tr>\n                <tr>\n                  <th>Medicatie</th>\n                  <td>PANTOZOL TABLET MSR 40MG</td>\n                </tr>\n                <tr>\n                  <th>Doseerinstructie</th>\n                  <td>\n                    <div>Timing: <div>eenmalig per dag, EVE</div>\n                    </div>\n                    <div>Zo nodig: <span title=\"Bij pijn (1028 - nhg-tabel-25-gebruiksvoorschrift#aanvullend-numeriek)\">Bij pijn</span>\n                    </div>\n                    <div>Toedieningsweg: <span title=\"Oraal (9 - G-Standaard thesaurus subtabel 0007)\">Oraal</span>\n                    </div>\n                    <div>Dosering: doseAndRate TODO</div>\n                  </td>\n                </tr>\n              </tbody>\n            </table>\n          </div>"
      },
      "extension": [ {
        "url": "http://nictiz.nl/fhir/StructureDefinition/ext-AdministrationAgreement.ReasonModificationOrDiscontinuation",
        "valueCodeableConcept": {
          "coding": [ {
            "system": "http://snomed.info/sct",
            "code": "112751000146109",
            "display": "medicatiebeleid veranderd"
          } ]
        }
      }, {
        "url": "http://nictiz.nl/fhir/StructureDefinition/ext-AdministrationAgreement.AdministrationAgreementDateTime",
        "valueDateTime": "${DATE, T, D, -10}T10:05:00+02:00"
      }, {
        "url": "http://nictiz.nl/fhir/StructureDefinition/ext-RenderedDosageInstruction",
        "valueString": "Vanaf T - 14 dagen, tot en met T - 10 dagen, Bij pijn 1 maal per dag 1 stuk 's avonds, Oraal, stopgezet"
      }, {
        "url": "http://nictiz.nl/fhir/StructureDefinition/ext-TimeInterval.Period",
        "valuePeriod": {
          "start": "${DATE, T, D, -14}T00:00:00+02:00",
          "end": "${DATE, T, D, -10}T23:59:59+02:00"
        }
      }, {
        "url": "http://nictiz.nl/fhir/StructureDefinition/ext-PharmaceuticalTreatment.Identifier",
        "valueIdentifier": {
          "system": "urn:oid:2.16.840.1.113883.2.4.3.11.999.77.1.1",
          "value": "MBH_300_stoppen_parallele_TA"
        }
      }, {
        "url": "http://nictiz.nl/fhir/StructureDefinition/ext-RelationAdministrationAgreement",
        "valueReference": {
          "type": "MedicationDispense",
          "identifier": {
            "system": "urn:oid:2.16.840.1.113883.2.4.3.11.999.77.422037009.1",
            "value": "MBH_300_stoppen_parallele_TA_TA_start_zonodig"
          },
          "display": "relatie naar toedieningsafspraak met identificatie: MBH_300_stoppen_parallele_TA_TA_start_zonodig || 2.16.840.1.113883.2.4.3.11.999.77.422037009.1"
        }
      } ],
      "modifierExtension": [ {
        "url": "http://nictiz.nl/fhir/StructureDefinition/ext-StopType",
        "valueCodeableConcept": {
          "coding": [ {
            "system": "http://snomed.info/sct",
            "code": "410546004",
            "display": "stopgezet"
          } ]
        }
      } ],
      "identifier": [ {
        "system": "urn:oid:2.16.840.1.113883.2.4.3.11.999.77.422037009.1",
        "value": "MBH_300_stoppen_parallele_TA_TA_stop_zonodig"
      } ],
      "status": "unknown",
      "category": {
        "coding": [ {
          "system": "http://snomed.info/sct",
          "code": "422037009",
          "display": "toedieningsafspraak"
        } ]
      },
      "medicationReference": {
        "reference": "urn:uuid:182d4f04-6ac4-11ec-0000-020000000000",
        "type": "Medication",
        "display": "PANTOZOL TABLET MSR 40MG"
      },
      "subject": {
        "reference": "urn:uuid:1c84b21e-6b37-11ec-0000-020000000000",
        "type": "Patient",
        "display": "Patient, J. de XXX_Luzac"
      },
      "performer": [ {
        "actor": {
          "reference": "urn:uuid:98d231d8-6b0c-11ec-0000-020000000000",
          "type": "Organization",
          "display": "Healthcare provider (organization), Apotheek De Gulle Gaper"
        }
      } ],
      "authorizingPrescription": [ {
        "type": "MedicationRequest",
        "identifier": {
          "system": "urn:oid:2.16.840.1.113883.2.4.3.11.999.77.16076005.1",
          "value": "MBH_300_stoppen_parallele_TA_MA_start"
        },
        "display": "relatie naar medicatieafspraak met identificatie: MBH_300_stoppen_parallele_TA_MA_start || 2.16.840.1.113883.2.4.3.11.999.77.16076005.1"
      } ],
      "dosageInstruction": [ {
        "timing": {
          "repeat": {
            "frequency": 1,
            "period": 1,
            "periodUnit": "d",
            "when": [ "EVE" ]
          }
        },
        "asNeededCodeableConcept": {
          "coding": [ {
            "system": "https://referentiemodel.nhg.org/tabellen/nhg-tabel-25-gebruiksvoorschrift#aanvullend-numeriek",
            "code": "1028",
            "display": "Bij pijn"
          } ]
        },
        "route": {
          "coding": [ {
            "system": "urn:oid:2.16.840.1.113883.2.4.4.9",
            "code": "9",
            "display": "Oraal"
          } ]
        },
        "doseAndRate": [ {
          "doseQuantity": {
            "extension": [ {
              "url": "http://hl7.org/fhir/StructureDefinition/iso21090-PQ-translation",
              "valueQuantity": {
                "value": 1,
                "unit": "stuk",
                "system": "urn:oid:2.16.840.1.113883.2.4.4.1.900.2",
                "code": "245"
              }
            } ],
            "value": 1,
            "unit": "stuk",
            "system": "http://unitsofmeasure.org",
            "code": "1"
          }
        } ]
      } ]
    },
    "request": {
      "method": "POST",
      "url": "MedicationDispense"
    }
  }, {
    "fullUrl": "urn:uuid:47838508-6acd-11ec-0000-020000000000",
    "resource": {
      "resourceType": "MedicationDispense",
      "meta": {
        "profile": [ "http://nictiz.nl/fhir/StructureDefinition/mp-AdministrationAgreement" ]
      },
      "text": {
        "status": "extensions",
        "div": "<div xmlns=\"http://www.w3.org/1999/xhtml\">\n            <table>\n              <caption>MedicationDispense. Subject: Patient, J. de XXX_Luzac. Id: MBH_300_stoppen_parallele_TA_TA_start2_zonodig (urn:oid:2.16.840.1.113883.2.4.3.11.999.77.422037009.1), Categorie: <span title=\"toedieningsafspraak (422037009 - SNOMED CT)\">toedieningsafspraak</span>, Status: onbekend<span style=\"display: block;\">Uitvoerende: Healthcare provider (organization), Apotheek De Gulle Gaper</span>\n              </caption>\n              <tbody>\n                <tr>\n                  <th>Gebaseerd op</th>\n                  <td>relatie naar medicatieafspraak met identificatie: MBH_300_stoppen_parallele_TA_MA_start || 2.16.840.1.113883.2.4.3.11.999.77.16076005.1 (Id: MBH_300_stoppen_parallele_TA_MA_start (urn:oid:2.16.840.1.113883.2.4.3.11.999.77.16076005.1))</td>\n                </tr>\n                <tr>\n                  <th>Medicatie</th>\n                  <td>PANTOZOL TABLET MSR 20MG</td>\n                </tr>\n                <tr>\n                  <th>Doseerinstructie</th>\n                  <td>\n                    <div>Timing: <div>eenmalig per dag, EVE</div>\n                    </div>\n                    <div>Zo nodig: <span title=\"Bij pijn (1028 - nhg-tabel-25-gebruiksvoorschrift#aanvullend-numeriek)\">Bij pijn</span>\n                    </div>\n                    <div>Toedieningsweg: <span title=\"Oraal (9 - G-Standaard thesaurus subtabel 0007)\">Oraal</span>\n                    </div>\n                    <div>Dosering: doseAndRate TODO</div>\n                  </td>\n                </tr>\n              </tbody>\n            </table>\n          </div>"
      },
      "extension": [ {
        "url": "http://nictiz.nl/fhir/StructureDefinition/ext-AdministrationAgreement.ReasonModificationOrDiscontinuation",
        "valueCodeableConcept": {
          "coding": [ {
            "system": "http://snomed.info/sct",
            "code": "182856006",
            "display": "geneesmiddel niet voorradig"
          } ]
        }
      }, {
        "url": "http://nictiz.nl/fhir/StructureDefinition/ext-AdministrationAgreement.AdministrationAgreementDateTime",
        "valueDateTime": "${DATE, T, D, -10}T10:05:00+02:00"
      }, {
        "url": "http://nictiz.nl/fhir/StructureDefinition/ext-RenderedDosageInstruction",
        "valueString": "Vanaf T - 10 dagen, gedurende 23 dagen, Bij pijn 1 maal per dag 2 stuks 's avonds, Oraal"
      }, {
        "url": "http://nictiz.nl/fhir/StructureDefinition/ext-TimeInterval.Period",
        "valuePeriod": {
          "extension": [ {
            "url": "http://nictiz.nl/fhir/StructureDefinition/ext-TimeInterval.Duration",
            "valueDuration": {
              "value": 23,
              "unit": "dag",
              "system": "http://unitsofmeasure.org",
              "code": "d"
            }
          } ],
          "start": "${DATE, T, D, -10}T00:00:00+02:00"
        }
      }, {
        "url": "http://nictiz.nl/fhir/StructureDefinition/ext-PharmaceuticalTreatment.Identifier",
        "valueIdentifier": {
          "system": "urn:oid:2.16.840.1.113883.2.4.3.11.999.77.1.1",
          "value": "MBH_300_stoppen_parallele_TA"
        }
      }, {
        "url": "http://nictiz.nl/fhir/StructureDefinition/ext-RelationAdministrationAgreement",
        "valueReference": {
          "type": "MedicationDispense",
          "identifier": {
            "system": "urn:oid:2.16.840.1.113883.2.4.3.11.999",
            "value": "MBH_300_stoppen_parallele_TA_TA_start_zonodig"
          },
          "display": "relatie naar toedieningsafspraak met identificatie: MBH_300_stoppen_parallele_TA_TA_start_zonodig || 2.16.840.1.113883.2.4.3.11.999"
        }
      } ],
      "identifier": [ {
        "system": "urn:oid:2.16.840.1.113883.2.4.3.11.999.77.422037009.1",
        "value": "MBH_300_stoppen_parallele_TA_TA_start2_zonodig"
      } ],
      "status": "unknown",
      "category": {
        "coding": [ {
          "system": "http://snomed.info/sct",
          "code": "422037009",
          "display": "toedieningsafspraak"
        } ]
      },
      "medicationReference": {
        "reference": "urn:uuid:c195331d-6aaa-11ec-0000-020000000000",
        "type": "Medication",
        "display": "PANTOZOL TABLET MSR 20MG"
      },
      "subject": {
        "reference": "urn:uuid:1c84b21e-6b37-11ec-0000-020000000000",
        "type": "Patient",
        "display": "Patient, J. de XXX_Luzac"
      },
      "performer": [ {
        "actor": {
          "reference": "urn:uuid:98d231d8-6b0c-11ec-0000-020000000000",
          "type": "Organization",
          "display": "Healthcare provider (organization), Apotheek De Gulle Gaper"
        }
      } ],
      "authorizingPrescription": [ {
        "type": "MedicationRequest",
        "identifier": {
          "system": "urn:oid:2.16.840.1.113883.2.4.3.11.999.77.16076005.1",
          "value": "MBH_300_stoppen_parallele_TA_MA_start"
        },
        "display": "relatie naar medicatieafspraak met identificatie: MBH_300_stoppen_parallele_TA_MA_start || 2.16.840.1.113883.2.4.3.11.999.77.16076005.1"
      } ],
      "dosageInstruction": [ {
        "timing": {
          "repeat": {
            "frequency": 1,
            "period": 1,
            "periodUnit": "d",
            "when": [ "EVE" ]
          }
        },
        "asNeededCodeableConcept": {
          "coding": [ {
            "system": "https://referentiemodel.nhg.org/tabellen/nhg-tabel-25-gebruiksvoorschrift#aanvullend-numeriek",
            "code": "1028",
            "display": "Bij pijn"
          } ]
        },
        "route": {
          "coding": [ {
            "system": "urn:oid:2.16.840.1.113883.2.4.4.9",
            "code": "9",
            "display": "Oraal"
          } ]
        },
        "doseAndRate": [ {
          "doseQuantity": {
            "extension": [ {
              "url": "http://hl7.org/fhir/StructureDefinition/iso21090-PQ-translation",
              "valueQuantity": {
                "value": 2,
                "unit": "stuk",
                "system": "urn:oid:2.16.840.1.113883.2.4.4.1.900.2",
                "code": "245"
              }
            } ],
            "value": 2,
            "unit": "stuk",
            "system": "http://unitsofmeasure.org",
            "code": "1"
          }
        } ]
      } ]
    },
    "request": {
      "method": "POST",
      "url": "MedicationDispense"
    }
  }, {
    "fullUrl": "urn:uuid:1c84b21e-6b37-11ec-0000-020000000000",
    "resource": {
      "resourceType": "Patient",
      "meta": {
        "profile": [ "http://nictiz.nl/fhir/StructureDefinition/nl-core-Patient" ]
      },
      "text": {
        "status": "extensions",
        "div": "<div xmlns=\"http://www.w3.org/1999/xhtml\">\n            <div>Id 999900778 (BSN), J. de XXX_Luzac, Vrouw, 24 oktober 1985</div>\n          </div>"
      },
      "identifier": [ {
        "system": "http://fhir.nl/fhir/NamingSystem/bsn",
        "value": "999900778"
      } ],
      "name": [ {
        "extension": [ {
          "url": "http://hl7.org/fhir/StructureDefinition/humanname-assembly-order",
          "valueCode": "NL1"
        } ],
        "use": "official",
        "text": "J. de XXX_Luzac",
        "family": "de XXX_Luzac",
        "_family": {
          "extension": [ {
            "url": "http://hl7.org/fhir/StructureDefinition/humanname-own-prefix",
            "valueString": "de"
          }, {
            "url": "http://hl7.org/fhir/StructureDefinition/humanname-own-name",
            "valueString": "XXX_Luzac"
          } ]
        },
        "given": [ "J." ],
        "_given": [ {
          "extension": [ {
            "url": "http://hl7.org/fhir/StructureDefinition/iso21090-EN-qualifier",
            "valueCode": "IN"
          } ]
        } ]
      } ],
      "gender": "female",
      "_gender": {
        "extension": [ {
          "url": "http://nictiz.nl/fhir/StructureDefinition/ext-CodeSpecification",
          "valueCodeableConcept": {
            "coding": [ {
              "system": "http://terminology.hl7.org/CodeSystem/v3-AdministrativeGender",
              "code": "F",
              "display": "Vrouw"
            } ]
          }
        } ]
      },
      "birthDate": "1985-10-24"
    },
    "request": {
      "method": "POST",
      "url": "Patient"
    }
  }, {
    "fullUrl": "urn:uuid:98d231d8-6b0c-11ec-0000-020000000000",
    "resource": {
      "resourceType": "Organization",
      "meta": {
        "profile": [ "http://nictiz.nl/fhir/StructureDefinition/nl-core-HealthcareProvider-Organization" ]
      },
      "text": {
        "status": "extensions",
        "div": "<div xmlns=\"http://www.w3.org/1999/xhtml\">\n            <table>\n              <caption>Organisatie. Id: 01236578 (URA)</caption>\n              <tbody>\n                <tr>\n                  <th>Naam</th>\n                  <td>Apotheek De Gulle Gaper</td>\n                </tr>\n              </tbody>\n            </table>\n          </div>"
      },
      "identifier": [ {
        "system": "http://fhir.nl/fhir/NamingSystem/ura",
        "value": "01236578"
      } ],
      "name": "Apotheek De Gulle Gaper"
    },
    "request": {
      "method": "POST",
      "url": "Organization"
    }
  }, {
    "fullUrl": "urn:uuid:ed21e864-6b45-11ec-0000-020000000000",
    "resource": {
      "resourceType": "Organization",
      "meta": {
        "profile": [ "http://nictiz.nl/fhir/StructureDefinition/nl-core-HealthcareProvider-Organization" ]
      },
      "text": {
        "status": "extensions",
        "div": "<div xmlns=\"http://www.w3.org/1999/xhtml\">\n            <table>\n              <caption>Organisatie. Id: 99901111 (URA)</caption>\n              <tbody>\n                <tr>\n                  <th>Naam</th>\n                  <td>Apotheek Jansen en Co</td>\n                </tr>\n              </tbody>\n            </table>\n          </div>"
      },
      "identifier": [ {
        "system": "http://fhir.nl/fhir/NamingSystem/ura",
        "value": "99901111"
      } ],
      "name": "Apotheek Jansen en Co"
    },
    "request": {
      "method": "POST",
      "url": "Organization"
    }
  }, {
    "fullUrl": "urn:uuid:e353031d-6b40-11ec-0000-020000000000",
    "resource": {
      "resourceType": "Medication",
      "meta": {
        "profile": [ "http://nictiz.nl/fhir/StructureDefinition/mp-PharmaceuticalProduct" ]
      },
      "text": {
        "status": "extensions",
        "div": "<div xmlns=\"http://www.w3.org/1999/xhtml\">\n            <table>\n              <tbody>\n                <tr>\n                  <th>Code</th>\n                  <td>\n                    <span title=\"ASPIRINE PROTECT EC TABLET MSR 100MG (1110837 - G-Standaard HPK)\">ASPIRINE PROTECT EC TABLET MSR 100MG</span>\n                  </td>\n                </tr>\n              </tbody>\n            </table>\n          </div>"
      },
      "code": {
        "coding": [ {
          "system": "urn:oid:2.16.840.1.113883.2.4.4.7",
          "code": "1110837",
          "display": "ASPIRINE PROTECT EC TABLET MSR 100MG",
          "userSelected": true
        }, {
          "system": "urn:oid:2.16.840.1.113883.2.4.4.10",
          "code": "49484",
          "display": "Acetylsalicylzuur tabletmsr 100mg"
        }, {
          "system": "urn:oid:2.16.840.1.113883.2.4.4.1",
          "code": "103039",
          "display": "Acetylsalicylzuur tabletmsr 100mg"
        } ],
        "text": "ASPIRINE PROTECT EC TABLET MSR 100MG"
      }
    },
    "request": {
      "method": "POST",
      "url": "Medication"
    }
  }, {
    "fullUrl": "urn:uuid:ff75311d-6b1a-11ec-0000-020000000000",
    "resource": {
      "resourceType": "Medication",
      "meta": {
        "profile": [ "http://nictiz.nl/fhir/StructureDefinition/mp-PharmaceuticalProduct" ]
      },
      "text": {
        "status": "extensions",
        "div": "<div xmlns=\"http://www.w3.org/1999/xhtml\">\n            <table>\n              <tbody>\n                <tr>\n                  <th>Code</th>\n                  <td>\n                    <span title=\"FUROSEMIDE SANDOZ TABLET 40MG (598860 - G-Standaard HPK)\">FUROSEMIDE SANDOZ TABLET 40MG</span>\n                  </td>\n                </tr>\n              </tbody>\n            </table>\n          </div>"
      },
      "code": {
        "coding": [ {
          "system": "urn:oid:2.16.840.1.113883.2.4.4.7",
          "code": "598860",
          "display": "FUROSEMIDE SANDOZ TABLET 40MG",
          "userSelected": true
        }, {
          "system": "urn:oid:2.16.840.1.113883.2.4.4.10",
          "code": "5967",
          "display": "FUROSEMIDE 40MG TABLET"
        }, {
          "system": "urn:oid:2.16.840.1.113883.2.4.4.1",
          "code": "16810",
          "display": "FUROSEMIDE 40MG TABLET"
        } ],
        "text": "FUROSEMIDE SANDOZ TABLET 40MG"
      }
    },
    "request": {
      "method": "POST",
      "url": "Medication"
    }
  }, {
    "fullUrl": "urn:uuid:c8dcf604-6b6b-11ec-0000-020000000000",
    "resource": {
      "resourceType": "Medication",
      "meta": {
        "profile": [ "http://nictiz.nl/fhir/StructureDefinition/mp-PharmaceuticalProduct" ]
      },
      "text": {
        "status": "extensions",
        "div": "<div xmlns=\"http://www.w3.org/1999/xhtml\">\n            <table>\n              <tbody>\n                <tr>\n                  <th>Code</th>\n                  <td>\n                    <span title=\"BROXIL CAPSULE 500MG (425087 - G-Standaard HPK)\">BROXIL CAPSULE 500MG</span>\n                  </td>\n                </tr>\n              </tbody>\n            </table>\n          </div>"
      },
      "code": {
        "coding": [ {
          "system": "urn:oid:2.16.840.1.113883.2.4.4.7",
          "code": "425087",
          "display": "BROXIL CAPSULE 500MG",
          "userSelected": true
        }, {
          "system": "urn:oid:2.16.840.1.113883.2.4.4.10",
          "code": "17205",
          "display": "FENETICILLINE CAPSULE 500MG"
        }, {
          "system": "urn:oid:2.16.840.1.113883.2.4.4.1",
          "code": "41092",
          "display": "FENETICILLINE 500MG CAPSULE"
        } ],
        "text": "BROXIL CAPSULE 500MG"
      }
    },
    "request": {
      "method": "POST",
      "url": "Medication"
    }
  }, {
    "fullUrl": "urn:uuid:9d5d4604-6b4e-11ec-0000-020000000000",
    "resource": {
      "resourceType": "Medication",
      "meta": {
        "profile": [ "http://nictiz.nl/fhir/StructureDefinition/mp-PharmaceuticalProduct" ]
      },
      "text": {
        "status": "extensions",
        "div": "<div xmlns=\"http://www.w3.org/1999/xhtml\">\n            <table>\n              <tbody>\n                <tr>\n                  <th>Code</th>\n                  <td>\n                    <span title=\"FERROFUMARAAT TEVA TABLET 200MG (869244 - G-Standaard HPK)\">FERROFUMARAAT TEVA TABLET 200MG</span>\n                  </td>\n                </tr>\n              </tbody>\n            </table>\n          </div>"
      },
      "code": {
        "coding": [ {
          "system": "urn:oid:2.16.840.1.113883.2.4.4.7",
          "code": "869244",
          "display": "FERROFUMARAAT TEVA TABLET 200MG",
          "userSelected": true
        }, {
          "system": "urn:oid:2.16.840.1.113883.2.4.4.10",
          "code": "42293",
          "display": "FERROFUMARAAT TABLET 200MG"
        }, {
          "system": "urn:oid:2.16.840.1.113883.2.4.4.1",
          "code": "15342",
          "display": "FERROFUMARAAT TABLET 200MG"
        } ],
        "text": "FERROFUMARAAT TEVA TABLET 200MG"
      }
    },
    "request": {
      "method": "POST",
      "url": "Medication"
    }
  }, {
    "fullUrl": "urn:uuid:182d4f04-6ac4-11ec-0000-020000000000",
    "resource": {
      "resourceType": "Medication",
      "meta": {
        "profile": [ "http://nictiz.nl/fhir/StructureDefinition/mp-PharmaceuticalProduct" ]
      },
      "text": {
        "status": "extensions",
        "div": "<div xmlns=\"http://www.w3.org/1999/xhtml\">\n            <table>\n              <tbody>\n                <tr>\n                  <th>Code</th>\n                  <td>\n                    <span title=\"PANTOZOL TABLET MSR 40MG (878421 - G-Standaard HPK)\">PANTOZOL TABLET MSR 40MG</span>\n                  </td>\n                </tr>\n              </tbody>\n            </table>\n          </div>"
      },
      "code": {
        "coding": [ {
          "system": "urn:oid:2.16.840.1.113883.2.4.4.7",
          "code": "878421",
          "display": "PANTOZOL TABLET MSR 40MG",
          "userSelected": true
        }, {
          "system": "urn:oid:2.16.840.1.113883.2.4.4.10",
          "code": "43044",
          "display": "PANTOPRAZOL 40MG TABLET MSR"
        }, {
          "system": "urn:oid:2.16.840.1.113883.2.4.4.1",
          "code": "96938",
          "display": "PANTOPRAZOL 40MG TABLET MSR"
        } ],
        "text": "PANTOZOL TABLET MSR 40MG"
      }
    },
    "request": {
      "method": "POST",
      "url": "Medication"
    }
  }, {
    "fullUrl": "urn:uuid:6b7d6104-6b5e-11ec-0000-020000000000",
    "resource": {
      "resourceType": "Medication",
      "meta": {
        "profile": [ "http://nictiz.nl/fhir/StructureDefinition/mp-PharmaceuticalProduct" ]
      },
      "text": {
        "status": "extensions",
        "div": "<div xmlns=\"http://www.w3.org/1999/xhtml\">\n            <table>\n              <tbody>\n                <tr>\n                  <th>Code</th>\n                  <td>\n                    <span title=\"PANTOPRAZOL TABLET MSR 20MG (52272 - G-Standaard PRK)\">PANTOPRAZOL TABLET MSR 20MG</span>\n                  </td>\n                </tr>\n              </tbody>\n            </table>\n          </div>"
      },
      "code": {
        "coding": [ {
          "system": "urn:oid:2.16.840.1.113883.2.4.4.10",
          "code": "52272",
          "display": "PANTOPRAZOL TABLET MSR 20MG",
          "userSelected": true
        }, {
          "system": "urn:oid:2.16.840.1.113883.2.4.4.1",
          "code": "106275",
          "display": "PANTOPRAZOL TABLET MSR 20MG"
        } ],
        "text": "PANTOPRAZOL TABLET MSR 20MG"
      }
    },
    "request": {
      "method": "POST",
      "url": "Medication"
    }
  }, {
    "fullUrl": "urn:uuid:c195331d-6aaa-11ec-0000-020000000000",
    "resource": {
      "resourceType": "Medication",
      "meta": {
        "profile": [ "http://nictiz.nl/fhir/StructureDefinition/mp-PharmaceuticalProduct" ]
      },
      "text": {
        "status": "extensions",
        "div": "<div xmlns=\"http://www.w3.org/1999/xhtml\">\n            <table>\n              <tbody>\n                <tr>\n                  <th>Code</th>\n                  <td>\n                    <span title=\"PANTOZOL TABLET MSR 20MG (1163094 - G-Standaard HPK)\">PANTOZOL TABLET MSR 20MG</span>\n                  </td>\n                </tr>\n              </tbody>\n            </table>\n          </div>"
      },
      "code": {
        "coding": [ {
          "system": "urn:oid:2.16.840.1.113883.2.4.4.7",
          "code": "1163094",
          "display": "PANTOZOL TABLET MSR 20MG",
          "userSelected": true
        }, {
          "system": "urn:oid:2.16.840.1.113883.2.4.4.10",
          "code": "52272",
          "display": "PANTOPRAZOL TABLET MSR 20MG"
        }, {
          "system": "urn:oid:2.16.840.1.113883.2.4.4.1",
          "code": "106275",
          "display": "PANTOPRAZOL TABLET MSR 20MG"
        } ],
        "text": "PANTOZOL TABLET MSR 20MG"
      }
    },
    "request": {
      "method": "POST",
      "url": "Medication"
    }
  }, {
    "fullUrl": "urn:uuid:08e5b404-6b15-11ec-0000-020000000000",
    "resource": {
      "resourceType": "Medication",
      "meta": {
        "profile": [ "http://nictiz.nl/fhir/StructureDefinition/mp-PharmaceuticalProduct" ]
      },
      "text": {
        "status": "extensions",
        "div": "<div xmlns=\"http://www.w3.org/1999/xhtml\">\n            <table>\n              <tbody>\n                <tr>\n                  <th>Code</th>\n                  <td>\n                    <span title=\"LARIAM TABLET 250MG (602574 - G-Standaard HPK)\">LARIAM TABLET 250MG</span>\n                  </td>\n                </tr>\n              </tbody>\n            </table>\n          </div>"
      },
      "code": {
        "coding": [ {
          "system": "urn:oid:2.16.840.1.113883.2.4.4.7",
          "code": "602574",
          "display": "LARIAM TABLET 250MG",
          "userSelected": true
        }, {
          "system": "urn:oid:2.16.840.1.113883.2.4.4.10",
          "code": "25410",
          "display": "MEFLOQUINE TABLET 250MG"
        }, {
          "system": "urn:oid:2.16.840.1.113883.2.4.4.1",
          "code": "66478",
          "display": "MEFLOQUINE TABLET 250MG"
        } ],
        "text": "LARIAM TABLET 250MG"
      }
    },
    "request": {
      "method": "POST",
      "url": "Medication"
    }
  } ]
}