{
  "resourceType": "Bundle",
  "id": "mgsets-mp-smg-tst-MVE-Scenarioset9-v30",
  "type": "transaction",
  "entry": [ {
    "fullUrl": "urn:uuid:c6ae5bdd-6ae1-11ec-0000-020000000000",
    "resource": {
      "resourceType": "MedicationDispense",
      "meta": {
        "profile": [ "http://nictiz.nl/fhir/StructureDefinition/mp-MedicationDispense" ]
      },
      "text": {
        "status": "extensions",
        "div": "<div xmlns=\"http://www.w3.org/1999/xhtml\">\n            <table>\n              <caption>MedicationDispense. Subject: Patient, M. XXX_Nederveen. Id: MBH_300_afleverlocatie_MVE (urn:oid:2.16.840.1.113883.2.4.3.11.999.77.373784005.1), Categorie: <span title=\"verstrekken van medicatie (373784005 - SNOMED CT)\">verstrekken van medicatie</span>, Status: voltooid<span style=\"display: block;\">Uitvoerende: Healthcare provider (organization), Apotheek De Gulle Gaper</span>\n              </caption>\n              <tbody>\n                <tr>\n                  <th>Gebaseerd op</th>\n                  <td>relatie naar verstrekkingsverzoek met identificatie: MBH_300_afleverlocatie_VV || 2.16.840.1.113883.2.4.3.11.999.77.52711000146108.1 (Id: MBH_300_afleverlocatie_VV (urn:oid:2.16.840.1.113883.2.4.3.11.999.77.52711000146108.1))</td>\n                </tr>\n                <tr>\n                  <th>Medicatie</th>\n                  <td>MODAFINIL FOCUS TABLET 200MG</td>\n                </tr>\n                <tr>\n                  <th>Hoeveelheid</th>\n                  <td>30 stuk</td>\n                </tr>\n                <tr>\n                  <th>Datum overhandigd</th>\n                  <td>${DATE, T, D, +0}T12:07:00+02:00</td>\n                </tr>\n                <tr>\n                  <th>Bestemming</th>\n                  <td/>\n                </tr>\n              </tbody>\n            </table>\n          </div>"
      },
      "extension": [ {
        "url": "http://nictiz.nl/fhir/StructureDefinition/ext-MedicationDispense.RequestDate",
        "valueDateTime": "${DATE, T, D, +0}T11:07:00+02:00"
      }, {
        "url": "http://nictiz.nl/fhir/StructureDefinition/ext-PharmaceuticalTreatment.Identifier",
        "valueIdentifier": {
          "system": "urn:oid:2.16.840.1.113883.2.4.3.11.999.77.1.1",
          "value": "MBH_300_afleverlocatie"
        }
      } ],
      "identifier": [ {
        "system": "urn:oid:2.16.840.1.113883.2.4.3.11.999.77.373784005.1",
        "value": "MBH_300_afleverlocatie_MVE"
      } ],
      "status": "completed",
      "category": {
        "coding": [ {
          "system": "http://snomed.info/sct",
          "code": "373784005",
          "display": "verstrekken van medicatie"
        } ]
      },
      "medicationReference": {
        "reference": "urn:uuid:8f27a004-6aca-11ec-0000-020000000000",
        "type": "Medication",
        "display": "MODAFINIL FOCUS TABLET 200MG"
      },
      "subject": {
        "reference": "urn:uuid:eb74c70e-6ab7-11ec-0000-020000000000",
        "type": "Patient",
        "display": "Patient, M. XXX_Nederveen"
      },
      "performer": [ {
        "actor": {
          "reference": "urn:uuid:10079464-6b64-11ec-0000-020000000000",
          "type": "Organization",
          "display": "Healthcare provider (organization), Apotheek De Gulle Gaper"
        }
      } ],
      "authorizingPrescription": [ {
        "type": "MedicationRequest",
        "identifier": {
          "system": "urn:oid:2.16.840.1.113883.2.4.3.11.999.77.52711000146108.1",
          "value": "MBH_300_afleverlocatie_VV"
        },
        "display": "relatie naar verstrekkingsverzoek met identificatie: MBH_300_afleverlocatie_VV || 2.16.840.1.113883.2.4.3.11.999.77.52711000146108.1"
      } ],
      "quantity": {
        "extension": [ {
          "url": "http://hl7.org/fhir/StructureDefinition/iso21090-PQ-translation",
          "valueQuantity": {
            "value": 30,
            "unit": "stuk",
            "system": "urn:oid:2.16.840.1.113883.2.4.4.1.900.2",
            "code": "245"
          }
        } ],
        "value": 30,
        "unit": "stuk",
        "system": "http://unitsofmeasure.org",
        "code": "1"
      },
      "whenHandedOver": "${DATE, T, D, +0}T12:07:00+02:00",
      "destination": {
        "reference": "urn:uuid:c3deabb0-6b34-11ec-0000-020000000000",
        "type": "Location",
        "display": "afleverlocatie"
      }
    },
    "request": {
      "method": "POST",
      "url": "MedicationDispense"
    }
  }, {
    "fullUrl": "urn:uuid:b2d363a7-6b34-11ec-0000-020000000000",
    "resource": {
      "resourceType": "MedicationDispense",
      "meta": {
        "profile": [ "http://nictiz.nl/fhir/StructureDefinition/mp-MedicationDispense" ]
      },
      "text": {
        "status": "extensions",
        "div": "<div xmlns=\"http://www.w3.org/1999/xhtml\">\n            <table>\n              <caption>MedicationDispense. Subject: Patient, M. XXX_Nederveen. Id: MBH_300_distributievorm_GDS_MVE (urn:oid:2.16.840.1.113883.2.4.3.11.999.77.373784005.1), Categorie: <span title=\"verstrekken van medicatie (373784005 - SNOMED CT)\">verstrekken van medicatie</span>, Status: voltooid<span style=\"display: block;\">Uitvoerende: Healthcare provider (organization), Apotheek De Gulle Gaper</span>\n              </caption>\n              <tbody>\n                <tr>\n                  <th>Gebaseerd op</th>\n                  <td>relatie naar verstrekkingsverzoek met identificatie: MBH_300_distributievorm_GDS_VV || 2.16.840.1.113883.2.4.3.11.999.77.52711000146108.1 (Id: MBH_300_distributievorm_GDS_VV (urn:oid:2.16.840.1.113883.2.4.3.11.999.77.52711000146108.1))</td>\n                </tr>\n                <tr>\n                  <th>Medicatie</th>\n                  <td>MIZOLLEN TABLET MGA 10MG</td>\n                </tr>\n                <tr>\n                  <th>Hoeveelheid</th>\n                  <td>100 stuk</td>\n                </tr>\n                <tr>\n                  <th>Datum overhandigd</th>\n                  <td>${DATE, T, D, -9}T12:01:00+02:00</td>\n                </tr>\n              </tbody>\n            </table>\n          </div>"
      },
      "extension": [ {
        "url": "http://nictiz.nl/fhir/StructureDefinition/ext-MedicationDispense.DistributionForm",
        "valueCodeableConcept": {
          "coding": [ {
            "system": "urn:oid:2.16.840.1.113883.2.4.3.11.60.20.77.5.3.8",
            "code": "1",
            "display": "GDS"
          } ]
        }
      }, {
        "url": "http://nictiz.nl/fhir/StructureDefinition/ext-PharmaceuticalTreatment.Identifier",
        "valueIdentifier": {
          "system": "urn:oid:2.16.840.1.113883.2.4.3.11.999.77.1.1",
          "value": "MBH_300_distributievorm_GDS"
        }
      } ],
      "identifier": [ {
        "system": "urn:oid:2.16.840.1.113883.2.4.3.11.999.77.373784005.1",
        "value": "MBH_300_distributievorm_GDS_MVE"
      } ],
      "status": "completed",
      "category": {
        "coding": [ {
          "system": "http://snomed.info/sct",
          "code": "373784005",
          "display": "verstrekken van medicatie"
        } ]
      },
      "medicationReference": {
        "reference": "urn:uuid:65ff631d-6b39-11ec-0000-020000000000",
        "type": "Medication",
        "display": "MIZOLLEN TABLET MGA 10MG"
      },
      "subject": {
        "reference": "urn:uuid:eb74c70e-6ab7-11ec-0000-020000000000",
        "type": "Patient",
        "display": "Patient, M. XXX_Nederveen"
      },
      "performer": [ {
        "actor": {
          "reference": "urn:uuid:10079464-6b64-11ec-0000-020000000000",
          "type": "Organization",
          "display": "Healthcare provider (organization), Apotheek De Gulle Gaper"
        }
      } ],
      "authorizingPrescription": [ {
        "type": "MedicationRequest",
        "identifier": {
          "system": "urn:oid:2.16.840.1.113883.2.4.3.11.999.77.52711000146108.1",
          "value": "MBH_300_distributievorm_GDS_VV"
        },
        "display": "relatie naar verstrekkingsverzoek met identificatie: MBH_300_distributievorm_GDS_VV || 2.16.840.1.113883.2.4.3.11.999.77.52711000146108.1"
      } ],
      "quantity": {
        "extension": [ {
          "url": "http://hl7.org/fhir/StructureDefinition/iso21090-PQ-translation",
          "valueQuantity": {
            "value": 100,
            "unit": "stuk",
            "system": "urn:oid:2.16.840.1.113883.2.4.4.1.900.2",
            "code": "245"
          }
        } ],
        "value": 100,
        "unit": "stuk",
        "system": "http://unitsofmeasure.org",
        "code": "1"
      },
      "whenHandedOver": "${DATE, T, D, -9}T12:01:00+02:00"
    },
    "request": {
      "method": "POST",
      "url": "MedicationDispense"
    }
  }, {
    "fullUrl": "urn:uuid:d43823a7-6a99-11ec-0000-020000000000",
    "resource": {
      "resourceType": "MedicationDispense",
      "meta": {
        "profile": [ "http://nictiz.nl/fhir/StructureDefinition/mp-MedicationDispense" ]
      },
      "text": {
        "status": "extensions",
        "div": "<div xmlns=\"http://www.w3.org/1999/xhtml\">\n            <table>\n              <caption>MedicationDispense. Subject: Patient, M. XXX_Nederveen. Id: MBH_300_logistiekeverbruiksperiode_duur_dagen_MVE (urn:oid:2.16.840.1.113883.2.4.3.11.999.77.373784005.1), Categorie: <span title=\"verstrekken van medicatie (373784005 - SNOMED CT)\">verstrekken van medicatie</span>, Status: voltooid<span style=\"display: block;\">Uitvoerende: Healthcare provider (organization), Apotheek De Gulle Gaper</span>\n              </caption>\n              <tbody>\n                <tr>\n                  <th>Gebaseerd op</th>\n                  <td>relatie naar verstrekkingsverzoek met identificatie: MBH_300_logistiekeverbruiksperiode_duur_dagen_VV || 2.16.840.1.113883.2.4.3.11.999.77.52711000146108.1 (Id: MBH_300_logistiekeverbruiksperiode_duur_dagen_VV (urn:oid:2.16.840.1.113883.2.4.3.11.999.77.52711000146108.1))</td>\n                </tr>\n                <tr>\n                  <th>Medicatie</th>\n                  <td>PARACETAMOL PCH TABLET 500MG</td>\n                </tr>\n                <tr>\n                  <th>Hoeveelheid</th>\n                  <td>100 stuk</td>\n                </tr>\n                <tr>\n                  <th>Dagen voorraad</th>\n                  <td>50 dag</td>\n                </tr>\n                <tr>\n                  <th>Datum overhandigd</th>\n                  <td>${DATE, T, D, +0}T12:02:00+02:00</td>\n                </tr>\n              </tbody>\n            </table>\n          </div>"
      },
      "extension": [ {
        "url": "http://nictiz.nl/fhir/StructureDefinition/ext-PharmaceuticalTreatment.Identifier",
        "valueIdentifier": {
          "system": "urn:oid:2.16.840.1.113883.2.4.3.11.999.77.1.1",
          "value": "MBH_300_logistiekeverbruiksperiode_duur_dagen"
        }
      } ],
      "identifier": [ {
        "system": "urn:oid:2.16.840.1.113883.2.4.3.11.999.77.373784005.1",
        "value": "MBH_300_logistiekeverbruiksperiode_duur_dagen_MVE"
      } ],
      "status": "completed",
      "category": {
        "coding": [ {
          "system": "http://snomed.info/sct",
          "code": "373784005",
          "display": "verstrekken van medicatie"
        } ]
      },
      "medicationReference": {
        "reference": "urn:uuid:9270a11d-6b35-11ec-0000-020000000000",
        "type": "Medication",
        "display": "PARACETAMOL PCH TABLET 500MG"
      },
      "subject": {
        "reference": "urn:uuid:eb74c70e-6ab7-11ec-0000-020000000000",
        "type": "Patient",
        "display": "Patient, M. XXX_Nederveen"
      },
      "performer": [ {
        "actor": {
          "reference": "urn:uuid:10079464-6b64-11ec-0000-020000000000",
          "type": "Organization",
          "display": "Healthcare provider (organization), Apotheek De Gulle Gaper"
        }
      } ],
      "authorizingPrescription": [ {
        "type": "MedicationRequest",
        "identifier": {
          "system": "urn:oid:2.16.840.1.113883.2.4.3.11.999.77.52711000146108.1",
          "value": "MBH_300_logistiekeverbruiksperiode_duur_dagen_VV"
        },
        "display": "relatie naar verstrekkingsverzoek met identificatie: MBH_300_logistiekeverbruiksperiode_duur_dagen_VV || 2.16.840.1.113883.2.4.3.11.999.77.52711000146108.1"
      } ],
      "quantity": {
        "extension": [ {
          "url": "http://hl7.org/fhir/StructureDefinition/iso21090-PQ-translation",
          "valueQuantity": {
            "value": 100,
            "unit": "stuk",
            "system": "urn:oid:2.16.840.1.113883.2.4.4.1.900.2",
            "code": "245"
          }
        } ],
        "value": 100,
        "unit": "stuk",
        "system": "http://unitsofmeasure.org",
        "code": "1"
      },
      "daysSupply": {
        "value": 50,
        "unit": "dag",
        "system": "http://unitsofmeasure.org",
        "code": "dag"
      },
      "whenHandedOver": "${DATE, T, D, +0}T12:02:00+02:00"
    },
    "request": {
      "method": "POST",
      "url": "MedicationDispense"
    }
  }, {
    "fullUrl": "urn:uuid:64dc02fe-6b47-11ec-0000-020000000000",
    "resource": {
      "resourceType": "MedicationDispense",
      "meta": {
        "profile": [ "http://nictiz.nl/fhir/StructureDefinition/mp-MedicationDispense" ]
      },
      "text": {
        "status": "extensions",
        "div": "<div xmlns=\"http://www.w3.org/1999/xhtml\">\n            <table>\n              <caption>MedicationDispense. Subject: Patient, M. XXX_Nederveen. Id: MBH_300_herhalingen_MVE1 (urn:oid:2.16.840.1.113883.2.4.3.11.999.77.373784005.1), Categorie: <span title=\"verstrekken van medicatie (373784005 - SNOMED CT)\">verstrekken van medicatie</span>, Status: voltooid<span style=\"display: block;\">Uitvoerende: Healthcare provider (organization), Apotheek De Gulle Gaper</span>\n              </caption>\n              <tbody>\n                <tr>\n                  <th>Gebaseerd op</th>\n                  <td>relatie naar verstrekkingsverzoek met identificatie: MBH_300_herhalingen_VV || 2.16.840.1.113883.2.4.3.11.999.77.52711000146108.1 (Id: MBH_300_herhalingen_VV (urn:oid:2.16.840.1.113883.2.4.3.11.999.77.52711000146108.1))</td>\n                </tr>\n                <tr>\n                  <th>Medicatie</th>\n                  <td>FUROSEMIDE APOTEX TABLET 40MG</td>\n                </tr>\n                <tr>\n                  <th>Hoeveelheid</th>\n                  <td>30 stuk</td>\n                </tr>\n                <tr>\n                  <th>Datum overhandigd</th>\n                  <td>${DATE, T, D, -50}T12:05:00+02:00</td>\n                </tr>\n              </tbody>\n            </table>\n          </div>"
      },
      "extension": [ {
        "url": "http://nictiz.nl/fhir/StructureDefinition/ext-PharmaceuticalTreatment.Identifier",
        "valueIdentifier": {
          "system": "urn:oid:2.16.840.1.113883.2.4.3.11.999.77.1.1",
          "value": "MBH_300_herhalingen"
        }
      } ],
      "identifier": [ {
        "system": "urn:oid:2.16.840.1.113883.2.4.3.11.999.77.373784005.1",
        "value": "MBH_300_herhalingen_MVE1"
      } ],
      "status": "completed",
      "category": {
        "coding": [ {
          "system": "http://snomed.info/sct",
          "code": "373784005",
          "display": "verstrekken van medicatie"
        } ]
      },
      "medicationReference": {
        "reference": "urn:uuid:bf911a04-6aac-11ec-0000-020000000000",
        "type": "Medication",
        "display": "FUROSEMIDE APOTEX TABLET 40MG"
      },
      "subject": {
        "reference": "urn:uuid:eb74c70e-6ab7-11ec-0000-020000000000",
        "type": "Patient",
        "display": "Patient, M. XXX_Nederveen"
      },
      "performer": [ {
        "actor": {
          "reference": "urn:uuid:10079464-6b64-11ec-0000-020000000000",
          "type": "Organization",
          "display": "Healthcare provider (organization), Apotheek De Gulle Gaper"
        }
      } ],
      "authorizingPrescription": [ {
        "type": "MedicationRequest",
        "identifier": {
          "system": "urn:oid:2.16.840.1.113883.2.4.3.11.999.77.52711000146108.1",
          "value": "MBH_300_herhalingen_VV"
        },
        "display": "relatie naar verstrekkingsverzoek met identificatie: MBH_300_herhalingen_VV || 2.16.840.1.113883.2.4.3.11.999.77.52711000146108.1"
      } ],
      "quantity": {
        "extension": [ {
          "url": "http://hl7.org/fhir/StructureDefinition/iso21090-PQ-translation",
          "valueQuantity": {
            "value": 30,
            "unit": "stuk",
            "system": "urn:oid:2.16.840.1.113883.2.4.4.1.900.2",
            "code": "245"
          }
        } ],
        "value": 30,
        "unit": "stuk",
        "system": "http://unitsofmeasure.org",
        "code": "1"
      },
      "whenHandedOver": "${DATE, T, D, -50}T12:05:00+02:00"
    },
    "request": {
      "method": "POST",
      "url": "MedicationDispense"
    }
  }, {
    "fullUrl": "urn:uuid:30b23afe-6ac8-11ec-0000-020000000000",
    "resource": {
      "resourceType": "MedicationDispense",
      "meta": {
        "profile": [ "http://nictiz.nl/fhir/StructureDefinition/mp-MedicationDispense" ]
      },
      "text": {
        "status": "extensions",
        "div": "<div xmlns=\"http://www.w3.org/1999/xhtml\">\n            <table>\n              <caption>MedicationDispense. Subject: Patient, M. XXX_Nederveen. Id: MBH_300_herhalingen_MVE2 (urn:oid:2.16.840.1.113883.2.4.3.11.999.77.373784005.1), Categorie: <span title=\"verstrekken van medicatie (373784005 - SNOMED CT)\">verstrekken van medicatie</span>, Status: voltooid<span style=\"display: block;\">Uitvoerende: Healthcare provider (organization), Apotheek De Gulle Gaper</span>\n              </caption>\n              <tbody>\n                <tr>\n                  <th>Gebaseerd op</th>\n                  <td>relatie naar verstrekkingsverzoek met identificatie: MBH_300_herhalingen_VV || 2.16.840.1.113883.2.4.3.11.999.77.52711000146108.1 (Id: MBH_300_herhalingen_VV (urn:oid:2.16.840.1.113883.2.4.3.11.999.77.52711000146108.1))</td>\n                </tr>\n                <tr>\n                  <th>Medicatie</th>\n                  <td>FUROSEMIDE APOTEX TABLET 40MG</td>\n                </tr>\n                <tr>\n                  <th>Hoeveelheid</th>\n                  <td>30 stuk</td>\n                </tr>\n                <tr>\n                  <th>Datum overhandigd</th>\n                  <td>${DATE, T, D, -20}T10:24:05+02:00</td>\n                </tr>\n              </tbody>\n            </table>\n          </div>"
      },
      "extension": [ {
        "url": "http://nictiz.nl/fhir/StructureDefinition/ext-PharmaceuticalTreatment.Identifier",
        "valueIdentifier": {
          "system": "urn:oid:2.16.840.1.113883.2.4.3.11.999.77.1.1",
          "value": "MBH_300_herhalingen"
        }
      } ],
      "identifier": [ {
        "system": "urn:oid:2.16.840.1.113883.2.4.3.11.999.77.373784005.1",
        "value": "MBH_300_herhalingen_MVE2"
      } ],
      "status": "completed",
      "category": {
        "coding": [ {
          "system": "http://snomed.info/sct",
          "code": "373784005",
          "display": "verstrekken van medicatie"
        } ]
      },
      "medicationReference": {
        "reference": "urn:uuid:bf911a04-6aac-11ec-0000-020000000000",
        "type": "Medication",
        "display": "FUROSEMIDE APOTEX TABLET 40MG"
      },
      "subject": {
        "reference": "urn:uuid:eb74c70e-6ab7-11ec-0000-020000000000",
        "type": "Patient",
        "display": "Patient, M. XXX_Nederveen"
      },
      "performer": [ {
        "actor": {
          "reference": "urn:uuid:10079464-6b64-11ec-0000-020000000000",
          "type": "Organization",
          "display": "Healthcare provider (organization), Apotheek De Gulle Gaper"
        }
      } ],
      "authorizingPrescription": [ {
        "type": "MedicationRequest",
        "identifier": {
          "system": "urn:oid:2.16.840.1.113883.2.4.3.11.999.77.52711000146108.1",
          "value": "MBH_300_herhalingen_VV"
        },
        "display": "relatie naar verstrekkingsverzoek met identificatie: MBH_300_herhalingen_VV || 2.16.840.1.113883.2.4.3.11.999.77.52711000146108.1"
      } ],
      "quantity": {
        "extension": [ {
          "url": "http://hl7.org/fhir/StructureDefinition/iso21090-PQ-translation",
          "valueQuantity": {
            "value": 30,
            "unit": "stuk",
            "system": "urn:oid:2.16.840.1.113883.2.4.4.1.900.2",
            "code": "245"
          }
        } ],
        "value": 30,
        "unit": "stuk",
        "system": "http://unitsofmeasure.org",
        "code": "1"
      },
      "whenHandedOver": "${DATE, T, D, -20}T10:24:05+02:00"
    },
    "request": {
      "method": "POST",
      "url": "MedicationDispense"
    }
  }, {
    "fullUrl": "urn:uuid:3c30f2fe-6b7b-11ec-0000-020000000000",
    "resource": {
      "resourceType": "MedicationDispense",
      "meta": {
        "profile": [ "http://nictiz.nl/fhir/StructureDefinition/mp-MedicationDispense" ]
      },
      "text": {
        "status": "extensions",
        "div": "<div xmlns=\"http://www.w3.org/1999/xhtml\">\n            <table>\n              <caption>MedicationDispense. Subject: Patient, M. XXX_Nederveen. Id: MBH_300_herhalingen_MVE3 (urn:oid:2.16.840.1.113883.2.4.3.11.999.77.373784005.1), Categorie: <span title=\"verstrekken van medicatie (373784005 - SNOMED CT)\">verstrekken van medicatie</span>, Status: voltooid<span style=\"display: block;\">Uitvoerende: Healthcare provider (organization), Apotheek De Gulle Gaper</span>\n              </caption>\n              <tbody>\n                <tr>\n                  <th>Gebaseerd op</th>\n                  <td>relatie naar verstrekkingsverzoek met identificatie: MBH_300_herhalingen_VV || 2.16.840.1.113883.2.4.3.11.999.77.52711000146108.1 (Id: MBH_300_herhalingen_VV (urn:oid:2.16.840.1.113883.2.4.3.11.999.77.52711000146108.1))</td>\n                </tr>\n                <tr>\n                  <th>Medicatie</th>\n                  <td>FUROSEMIDE APOTEX TABLET 40MG</td>\n                </tr>\n                <tr>\n                  <th>Hoeveelheid</th>\n                  <td>30 stuk</td>\n                </tr>\n                <tr>\n                  <th>Datum overhandigd</th>\n                  <td>${DATE, T, D, +10}T09:46:48+02:00</td>\n                </tr>\n              </tbody>\n            </table>\n          </div>"
      },
      "extension": [ {
        "url": "http://nictiz.nl/fhir/StructureDefinition/ext-PharmaceuticalTreatment.Identifier",
        "valueIdentifier": {
          "system": "urn:oid:2.16.840.1.113883.2.4.3.11.999.77.1.1",
          "value": "MBH_300_herhalingen"
        }
      } ],
      "identifier": [ {
        "system": "urn:oid:2.16.840.1.113883.2.4.3.11.999.77.373784005.1",
        "value": "MBH_300_herhalingen_MVE3"
      } ],
      "status": "completed",
      "category": {
        "coding": [ {
          "system": "http://snomed.info/sct",
          "code": "373784005",
          "display": "verstrekken van medicatie"
        } ]
      },
      "medicationReference": {
        "reference": "urn:uuid:bf911a04-6aac-11ec-0000-020000000000",
        "type": "Medication",
        "display": "FUROSEMIDE APOTEX TABLET 40MG"
      },
      "subject": {
        "reference": "urn:uuid:eb74c70e-6ab7-11ec-0000-020000000000",
        "type": "Patient",
        "display": "Patient, M. XXX_Nederveen"
      },
      "performer": [ {
        "actor": {
          "reference": "urn:uuid:10079464-6b64-11ec-0000-020000000000",
          "type": "Organization",
          "display": "Healthcare provider (organization), Apotheek De Gulle Gaper"
        }
      } ],
      "authorizingPrescription": [ {
        "type": "MedicationRequest",
        "identifier": {
          "system": "urn:oid:2.16.840.1.113883.2.4.3.11.999.77.52711000146108.1",
          "value": "MBH_300_herhalingen_VV"
        },
        "display": "relatie naar verstrekkingsverzoek met identificatie: MBH_300_herhalingen_VV || 2.16.840.1.113883.2.4.3.11.999.77.52711000146108.1"
      } ],
      "quantity": {
        "extension": [ {
          "url": "http://hl7.org/fhir/StructureDefinition/iso21090-PQ-translation",
          "valueQuantity": {
            "value": 30,
            "unit": "stuk",
            "system": "urn:oid:2.16.840.1.113883.2.4.4.1.900.2",
            "code": "245"
          }
        } ],
        "value": 30,
        "unit": "stuk",
        "system": "http://unitsofmeasure.org",
        "code": "1"
      },
      "whenHandedOver": "${DATE, T, D, +10}T09:46:48+02:00"
    },
    "request": {
      "method": "POST",
      "url": "MedicationDispense"
    }
  }, {
    "fullUrl": "urn:uuid:eb74c70e-6ab7-11ec-0000-020000000000",
    "resource": {
      "resourceType": "Patient",
      "meta": {
        "profile": [ "http://nictiz.nl/fhir/StructureDefinition/nl-core-Patient" ]
      },
      "text": {
        "status": "extensions",
        "div": "<div xmlns=\"http://www.w3.org/1999/xhtml\">\n            <div>Id 999900833 (BSN), <span title=\"Naamsamenstelling: Eigennaam\">M. XXX_Nederveen</span>, Vrouw, 28 oktober 1985</div>\n          </div>"
      },
      "identifier": [ {
        "system": "http://fhir.nl/fhir/NamingSystem/bsn",
        "value": "999900833"
      } ],
      "name": [ {
        "extension": [ {
          "url": "http://hl7.org/fhir/StructureDefinition/humanname-assembly-order",
          "valueCode": "NL1"
        } ],
        "use": "official",
        "text": "M. XXX_Nederveen",
        "family": "XXX_Nederveen",
        "_family": {
          "extension": [ {
            "url": "http://hl7.org/fhir/StructureDefinition/humanname-own-name",
            "valueString": "XXX_Nederveen"
          } ]
        },
        "given": [ "M." ],
        "_given": [ {
          "extension": [ {
            "url": "http://hl7.org/fhir/StructureDefinition/iso21090-EN-qualifier",
            "valueCode": "IN"
          } ]
        } ]
      } ],
      "gender": "female",
      "_gender": {
        "extension": [ {
          "url": "http://nictiz.nl/fhir/StructureDefinition/ext-CodeSpecification",
          "valueCodeableConcept": {
            "coding": [ {
              "system": "http://terminology.hl7.org/CodeSystem/v3-AdministrativeGender",
              "code": "F",
              "display": "Vrouw"
            } ]
          }
        } ]
      },
      "birthDate": "1985-10-28"
    },
    "request": {
      "method": "POST",
      "url": "Patient"
    }
  }, {
    "fullUrl": "urn:uuid:10079464-6b64-11ec-0000-020000000000",
    "resource": {
      "resourceType": "Organization",
      "meta": {
        "profile": [ "http://nictiz.nl/fhir/StructureDefinition/nl-core-HealthcareProvider-Organization" ]
      },
      "text": {
        "status": "extensions",
        "div": "<div xmlns=\"http://www.w3.org/1999/xhtml\">\n            <table>\n              <caption>Organisatie. Id: 01236578 (URA)</caption>\n              <tbody>\n                <tr>\n                  <th>Naam</th>\n                  <td>Apotheek De Gulle Gaper</td>\n                </tr>\n                <tr>\n                  <th>Adres</th>\n                  <td>Dorpsstraat 12 A, 1234AA Ons Dorp (Werk)</td>\n                </tr>\n              </tbody>\n            </table>\n          </div>"
      },
      "identifier": [ {
        "system": "http://fhir.nl/fhir/NamingSystem/ura",
        "value": "01236578"
      } ],
      "name": "Apotheek De Gulle Gaper",
      "address": [ {
        "extension": [ {
          "url": "http://nictiz.nl/fhir/StructureDefinition/ext-AddressInformation.AddressType",
          "valueCodeableConcept": {
            "coding": [ {
              "system": "http://terminology.hl7.org/CodeSystem/v3-AddressUse",
              "code": "WP",
              "display": "Werkadres"
            } ]
          }
        } ],
        "use": "work",
        "line": [ "Dorpsstraat 12 A" ],
        "_line": [ {
          "extension": [ {
            "url": "http://hl7.org/fhir/StructureDefinition/iso21090-ADXP-streetName",
            "valueString": "Dorpsstraat"
          }, {
            "url": "http://hl7.org/fhir/StructureDefinition/iso21090-ADXP-houseNumber",
            "valueString": "12"
          }, {
            "url": "http://hl7.org/fhir/StructureDefinition/iso21090-ADXP-buildingNumberSuffix",
            "valueString": "A"
          } ]
        } ],
        "city": "Ons Dorp",
        "postalCode": "1234AA"
      } ]
    },
    "request": {
      "method": "POST",
      "url": "Organization"
    }
  }, {
    "fullUrl": "urn:uuid:bf911a04-6aac-11ec-0000-020000000000",
    "resource": {
      "resourceType": "Medication",
      "meta": {
        "profile": [ "http://nictiz.nl/fhir/StructureDefinition/mp-PharmaceuticalProduct" ]
      },
      "text": {
        "status": "extensions",
        "div": "<div xmlns=\"http://www.w3.org/1999/xhtml\">\n            <table>\n              <tbody>\n                <tr>\n                  <th>Code</th>\n                  <td>\n                    <span title=\"FUROSEMIDE APOTEX TABLET 40MG (1127047 - G-Standaard HPK)\">FUROSEMIDE APOTEX TABLET 40MG</span>\n                  </td>\n                </tr>\n              </tbody>\n            </table>\n          </div>"
      },
      "code": {
        "coding": [ {
          "system": "urn:oid:2.16.840.1.113883.2.4.4.7",
          "code": "1127047",
          "display": "FUROSEMIDE APOTEX TABLET 40MG",
          "userSelected": true
        }, {
          "system": "urn:oid:2.16.840.1.113883.2.4.4.10",
          "code": "5967",
          "display": "FUROSEMIDE 40MG TABLET"
        }, {
          "system": "urn:oid:2.16.840.1.113883.2.4.4.1",
          "code": "16810",
          "display": "FUROSEMIDE 40MG TABLET"
        } ],
        "text": "FUROSEMIDE APOTEX TABLET 40MG"
      }
    },
    "request": {
      "method": "POST",
      "url": "Medication"
    }
  }, {
    "fullUrl": "urn:uuid:65ff631d-6b39-11ec-0000-020000000000",
    "resource": {
      "resourceType": "Medication",
      "meta": {
        "profile": [ "http://nictiz.nl/fhir/StructureDefinition/mp-PharmaceuticalProduct" ]
      },
      "text": {
        "status": "extensions",
        "div": "<div xmlns=\"http://www.w3.org/1999/xhtml\">\n            <table>\n              <tbody>\n                <tr>\n                  <th>Code</th>\n                  <td>\n                    <span title=\"MIZOLLEN TABLET MGA 10MG (1101099 - G-Standaard HPK)\">MIZOLLEN TABLET MGA 10MG</span>\n                  </td>\n                </tr>\n              </tbody>\n            </table>\n          </div>"
      },
      "code": {
        "coding": [ {
          "system": "urn:oid:2.16.840.1.113883.2.4.4.7",
          "code": "1101099",
          "display": "MIZOLLEN TABLET MGA 10MG",
          "userSelected": true
        }, {
          "system": "urn:oid:2.16.840.1.113883.2.4.4.10",
          "code": "48291",
          "display": "MIZOLASTINE TABLET MGA  10MG"
        }, {
          "system": "urn:oid:2.16.840.1.113883.2.4.4.1",
          "code": "102164",
          "display": "MIZOLASTINE TABLET MGA  10MG"
        } ],
        "text": "MIZOLLEN TABLET MGA 10MG"
      }
    },
    "request": {
      "method": "POST",
      "url": "Medication"
    }
  }, {
    "fullUrl": "urn:uuid:8f27a004-6aca-11ec-0000-020000000000",
    "resource": {
      "resourceType": "Medication",
      "meta": {
        "profile": [ "http://nictiz.nl/fhir/StructureDefinition/mp-PharmaceuticalProduct" ]
      },
      "text": {
        "status": "extensions",
        "div": "<div xmlns=\"http://www.w3.org/1999/xhtml\">\n            <table>\n              <tbody>\n                <tr>\n                  <th>Code</th>\n                  <td>\n                    <span title=\"MODAFINIL FOCUS TABLET 200MG (2842246 - G-Standaard HPK)\">MODAFINIL FOCUS TABLET 200MG</span>\n                  </td>\n                </tr>\n              </tbody>\n            </table>\n          </div>"
      },
      "code": {
        "coding": [ {
          "system": "urn:oid:2.16.840.1.113883.2.4.4.7",
          "code": "2842246",
          "display": "MODAFINIL FOCUS TABLET 200MG",
          "userSelected": true
        }, {
          "system": "urn:oid:2.16.840.1.113883.2.4.4.10",
          "code": "199311",
          "display": "MODAFINIL TABLET 200MG"
        }, {
          "system": "urn:oid:2.16.840.1.113883.2.4.4.1",
          "code": "179051",
          "display": "MODAFINIL TABLET 200MG"
        } ],
        "text": "MODAFINIL FOCUS TABLET 200MG"
      }
    },
    "request": {
      "method": "POST",
      "url": "Medication"
    }
  }, {
    "fullUrl": "urn:uuid:9270a11d-6b35-11ec-0000-020000000000",
    "resource": {
      "resourceType": "Medication",
      "meta": {
        "profile": [ "http://nictiz.nl/fhir/StructureDefinition/mp-PharmaceuticalProduct" ]
      },
      "text": {
        "status": "extensions",
        "div": "<div xmlns=\"http://www.w3.org/1999/xhtml\">\n            <table>\n              <tbody>\n                <tr>\n                  <th>Code</th>\n                  <td>\n                    <span title=\"PARACETAMOL PCH TABLET 500MG (768901 - G-Standaard HPK)\">PARACETAMOL PCH TABLET 500MG</span>\n                  </td>\n                </tr>\n              </tbody>\n            </table>\n          </div>"
      },
      "code": {
        "coding": [ {
          "system": "urn:oid:2.16.840.1.113883.2.4.4.7",
          "code": "768901",
          "display": "PARACETAMOL PCH TABLET 500MG",
          "userSelected": true
        }, {
          "system": "urn:oid:2.16.840.1.113883.2.4.4.10",
          "code": "67903",
          "display": "PARACETAMOL 500MG TABLET"
        }, {
          "system": "urn:oid:2.16.840.1.113883.2.4.4.1",
          "code": "2194",
          "display": "PARACETAMOL 500MG TABLET"
        } ],
        "text": "PARACETAMOL PCH TABLET 500MG"
      }
    },
    "request": {
      "method": "POST",
      "url": "Medication"
    }
  }, {
    "fullUrl": "urn:uuid:c3deabb0-6b34-11ec-0000-020000000000",
    "resource": {
      "resourceType": "Location",
      "meta": {
        "profile": [ "http://hl7.org/fhir/StructureDefinition/Location" ]
      },
      "text": {
        "status": "extensions",
        "div": "<div xmlns=\"http://www.w3.org/1999/xhtml\">\n            <table>\n              <caption>Locatie. </caption>\n              <tbody>\n                <tr>\n                  <th>Naam</th>\n                  <td>Dorpsrand 200,1256ZZ Ons Dorp</td>\n                </tr>\n              </tbody>\n            </table>\n          </div>"
      },
      "name": "Dorpsrand 200,1256ZZ Ons Dorp"
    },
    "request": {
      "method": "POST",
      "url": "Location"
    }
  } ]
}