<Bundle xmlns="http://hl7.org/fhir">
  <id value="mp-am-tst-lengte-gewicht-v30"/>
  <meta>
    <profile value="http://nictiz.nl/fhir/StructureDefinition/mp-ReplyProposalMedicationAgreement-Bundle"/>
  </meta>
  <type value="transaction"/>
  <entry>
    <fullUrl value="urn:uuid:6a96849f-6ae0-11ec-0000-020000000000"/>
    <resource>
      <Communication>
        <meta>
          <profile value="http://nictiz.nl/fhir/StructureDefinition/mp-ReplyProposalMedicationAgreement"/>
          <tag>
            <system value="http://terminology.hl7.org/CodeSystem/common-tags"/>
            <code value="actionable"/>
          </tag>
        </meta>
        <identifier>
          <system value="urn:oid:2.16.840.1.113883.2.4.3.11.999.77.16076005.3"/>
          <value value="MBH_300_start_eind_lengte_gewicht_AVMA"/>
        </identifier>
        <basedOn>
          <type value="MedicationRequest"/>
          <identifier>
            <system value="urn:oid:2.16.840.1.113883.2.4.3.11.999.77.16076005.2"/>
            <value value="MBH_300_start_eind_VMA"/>
          </identifier>
          <display value="relatie naar voorstelgegevens: MBH_300_start_eind_VMA || 2.16.840.1.113883.2.4.3.11.999.77.16076005.2"/>
        </basedOn>
        <status value="completed"/>
        <subject>
          <reference value="urn:uuid:5faee092-6b61-11ec-0000-020000000000"/>
          <type value="Patient"/>
          <display value="Patient, C. XXX_Brugge"/>
        </subject>
        <sent value="${DATE, T, D, +0}T08:26:00+02:00"/>
        <sender>
          <reference value="urn:uuid:36322824-6aed-11ec-0000-020000000000"/>
          <type value="PractitionerRole"/>
          <display value="Healthcare professional (role), Peter van Pulver, Huisartsen, niet nader gespecificeerd, Huisartsenpraktijk Pulver &amp; Partners"/>
        </sender>
        <payload>
          <contentString>
            <extension url="http://nictiz.nl/fhir/StructureDefinition/ext-Communication.Payload.ContentCodeableConcept">
              <valueCodeableConcept>
                <coding>
                  <system value="urn:oid:2.16.840.1.113883.2.4.3.11.60.20.77.5.2.17"/>
                  <code value="101"/>
                  <display value="Ja, medicatieafspraak volgt"/>
                </coding>
              </valueCodeableConcept>
            </extension>
          </contentString>
        </payload>
      </Communication>
    </resource>
    <request>
      <method value="POST"/>
      <url value="Communication"/>
    </request>
  </entry>
  <entry>
    <fullUrl value="urn:uuid:5faee092-6b61-11ec-0000-020000000000"/>
    <resource>
      <Patient>
        <meta>
          <profile value="http://nictiz.nl/fhir/StructureDefinition/nl-core-Patient"/>
        </meta>
        <text>
          <status value="extensions"/>
          <div xmlns="http://www.w3.org/1999/xhtml">
            <div>Id 999900419 (BSN), <span title="Naamsamenstelling: Eigennaam">C. XXX_Brugge</span>, Man, 16 oktober 1963</div>
          </div>
        </text>
        <identifier>
          <system value="http://fhir.nl/fhir/NamingSystem/bsn"/>
          <value value="999900419"/>
        </identifier>
        <name>
          <extension url="http://hl7.org/fhir/StructureDefinition/humanname-assembly-order">
            <valueCode value="NL1"/>
          </extension>
          <use value="official"/>
          <text value="C. XXX_Brugge"/>
          <family value="XXX_Brugge">
            <extension url="http://hl7.org/fhir/StructureDefinition/humanname-own-name">
              <valueString value="XXX_Brugge"/>
            </extension>
          </family>
          <given value="C.">
            <extension url="http://hl7.org/fhir/StructureDefinition/iso21090-EN-qualifier">
              <valueCode value="IN"/>
            </extension>
          </given>
        </name>
        <gender value="male">
          <extension url="http://nictiz.nl/fhir/StructureDefinition/ext-CodeSpecification">
            <valueCodeableConcept>
              <coding>
                <system value="http://terminology.hl7.org/CodeSystem/v3-AdministrativeGender"/>
                <code value="M"/>
                <display value="Man"/>
              </coding>
            </valueCodeableConcept>
          </extension>
        </gender>
        <birthDate value="1963-10-16"/>
      </Patient>
    </resource>
    <request>
      <method value="POST"/>
      <url value="Patient"/>
    </request>
  </entry>
  <entry>
    <fullUrl value="urn:uuid:36322824-6aed-11ec-0000-020000000000"/>
    <resource>
      <PractitionerRole>
        <meta>
          <profile value="http://nictiz.nl/fhir/StructureDefinition/nl-core-HealthProfessional-PractitionerRole"/>
        </meta>
        <text>
          <status value="extensions"/>
          <div xmlns="http://www.w3.org/1999/xhtml">
            <table>
              <caption>Zorgverlenerrol. </caption>
              <tbody>
                <tr>
                  <th>Zorgverlener</th>
                  <td>
                    <div>Healthcare professional (person), Peter van Pulver</div>
                    <div>Healthcare provider (organization), Huisartsenpraktijk Pulver &amp; Partners</div>
                  </td>
                </tr>
                <tr>
                  <th>Specialisme</th>
                  <td>
                    <span title="Huisartsen, niet nader gespecificeerd (0100 - AGB-medisch specialisme)">Huisartsen, niet nader gespecificeerd</span>
                  </td>
                </tr>
              </tbody>
            </table>
          </div>
        </text>
        <practitioner>
          <reference value="urn:uuid:4a573558-6ad5-11ec-0000-020000000000"/>
          <type value="Practitioner"/>
          <display value="Healthcare professional (person), Peter van Pulver"/>
        </practitioner>
        <organization>
          <reference value="urn:uuid:7fa869d8-6b44-11ec-0000-020000000000"/>
          <type value="Organization"/>
          <display value="Healthcare provider (organization), Huisartsenpraktijk Pulver &amp; Partners"/>
        </organization>
        <specialty>
          <coding>
            <system value="urn:oid:2.16.840.1.113883.2.4.6.7"/>
            <version value="2020-10-23T00:00:00"/>
            <code value="0100"/>
            <display value="Huisartsen, niet nader gespecificeerd"/>
          </coding>
        </specialty>
      </PractitionerRole>
    </resource>
    <request>
      <method value="POST"/>
      <url value="PractitionerRole"/>
    </request>
  </entry>
  <entry>
    <fullUrl value="urn:uuid:4a573558-6ad5-11ec-0000-020000000000"/>
    <resource>
      <Practitioner>
        <meta>
          <profile value="http://nictiz.nl/fhir/StructureDefinition/nl-core-HealthProfessional-Practitioner"/>
        </meta>
        <text>
          <status value="extensions"/>
          <div xmlns="http://www.w3.org/1999/xhtml">
            <div>Id 000001111 (UZI-NR-PERS), Peter van Pulver</div>
          </div>
        </text>
        <identifier>
          <system value="http://fhir.nl/fhir/NamingSystem/uzi-nr-pers"/>
          <value value="000001111"/>
        </identifier>
        <name>
          <use value="official"/>
          <text value="Peter van Pulver"/>
          <family value="van Pulver">
            <extension url="http://hl7.org/fhir/StructureDefinition/humanname-own-prefix">
              <valueString value="van"/>
            </extension>
            <extension url="http://hl7.org/fhir/StructureDefinition/humanname-own-name">
              <valueString value="Pulver"/>
            </extension>
          </family>
          <given value="Peter">
            <extension url="http://hl7.org/fhir/StructureDefinition/iso21090-EN-qualifier">
              <valueCode value="BR"/>
            </extension>
          </given>
        </name>
      </Practitioner>
    </resource>
    <request>
      <method value="POST"/>
      <url value="Practitioner"/>
    </request>
  </entry>
  <entry>
    <fullUrl value="urn:uuid:7fa869d8-6b44-11ec-0000-020000000000"/>
    <resource>
      <Organization>
        <meta>
          <profile value="http://nictiz.nl/fhir/StructureDefinition/nl-core-HealthcareProvider-Organization"/>
        </meta>
        <text>
          <status value="extensions"/>
          <div xmlns="http://www.w3.org/1999/xhtml">
            <table>
              <caption>Organisatie. Id: 00001111 (URA)</caption>
              <tbody>
                <tr>
                  <th>Naam</th>
                  <td>Huisartsenpraktijk Pulver &amp; Partners</td>
                </tr>
                <tr>
                  <th>Adres</th>
                  <td>Dorpsstraat 1, 1234AA Ons Dorp (Werk)</td>
                </tr>
              </tbody>
            </table>
          </div>
        </text>
        <identifier>
          <system value="http://fhir.nl/fhir/NamingSystem/ura"/>
          <value value="00001111"/>
        </identifier>
        <name value="Huisartsenpraktijk Pulver &amp; Partners"/>
        <address>
          <extension url="http://nictiz.nl/fhir/StructureDefinition/ext-AddressInformation.AddressType">
            <valueCodeableConcept>
              <coding>
                <system value="http://terminology.hl7.org/CodeSystem/v3-AddressUse"/>
                <code value="WP"/>
                <display value="Werkadres"/>
              </coding>
            </valueCodeableConcept>
          </extension>
          <use value="work"/>
          <line value="Dorpsstraat 1">
            <extension url="http://hl7.org/fhir/StructureDefinition/iso21090-ADXP-streetName">
              <valueString value="Dorpsstraat"/>
            </extension>
            <extension url="http://hl7.org/fhir/StructureDefinition/iso21090-ADXP-houseNumber">
              <valueString value="1"/>
            </extension>
          </line>
          <city value="Ons Dorp"/>
          <postalCode value="1234AA"/>
        </address>
      </Organization>
    </resource>
    <request>
      <method value="POST"/>
      <url value="Organization"/>
    </request>
  </entry>
</Bundle>
