{
  "resourceType": "Bundle",
  "id": "mv-mp-vo-tst-13-1-contact-episode-v30",
  "meta": {
    "profile": [ "http://nictiz.nl/fhir/StructureDefinition/mp-MedicationPrescription-Bundle" ]
  },
  "type": "transaction",
  "entry": [ {
    "fullUrl": "urn:uuid:4dcadb3e-6aee-11ec-0000-020000000000",
    "resource": {
      "resourceType": "MedicationRequest",
      "meta": {
        "profile": [ "http://nictiz.nl/fhir/StructureDefinition/mp-MedicationAgreement" ],
        "tag": [ {
          "system": "http://terminology.hl7.org/CodeSystem/common-tags",
          "code": "actionable"
        } ]
      },
      "text": {
        "status": "extensions",
        "div": "<div xmlns=\"http://www.w3.org/1999/xhtml\">\n            <table>\n              <caption>MedicationRequest. Subject: Patient, H. XXX_Hoek. Id: MBH_300_contactepisode_MA (urn:oid:2.16.840.1.113883.2.4.3.11.999.77.16076005.1), Categorie: <span title=\"voorschrijven van geneesmiddel (33633005 - SNOMED CT)\">voorschrijven van geneesmiddel</span>, Status: actief<span style=\"display: block;\">Intentie: aanvraag</span>\n                <span style=\"display: block;\">Aangevraagd door: Healthcare professional (role), Peter van Pulver, Huisartsen, niet nader gespecificeerd, Huisartsenpraktijk Pulver &amp; Partners</span>\n              </caption>\n              <tbody>\n                <tr>\n                  <th>Medicatie</th>\n                  <td>ACENOCOUMAROL TABLET 1MG</td>\n                </tr>\n                <tr>\n                  <th>Doseerinstructie</th>\n                  <td>\n                    <div>Timing: <div>eenmalig per dag</div>\n                    </div>\n                    <div>Toedieningsweg: <span title=\"Oraal (9 - G-Standaard thesaurus subtabel 0007)\">Oraal</span>\n                    </div>\n                    <div>Dosering: doseAndRate TODO</div>\n                  </td>\n                </tr>\n              </tbody>\n            </table>\n          </div>"
      },
      "extension": [ {
        "url": "http://nictiz.nl/fhir/StructureDefinition/ext-RegistrationDateTime",
        "valueDateTime": "${DATE, T, D, +0}T08:00:00+02:00"
      }, {
        "url": "http://nictiz.nl/fhir/StructureDefinition/ext-RenderedDosageInstruction",
        "valueString": "Vanaf <T-20D{00:00:00}>t/m <T+9D{23:59:59}>, 1 maal per dag 2 stuks, oraal"
      }, {
        "url": "http://nictiz.nl/fhir/StructureDefinition/ext-TimeInterval.Period",
        "valuePeriod": {
          "start": "${DATE, T, D, +0}T00:00:00+02:00"
        }
      }, {
        "url": "http://nictiz.nl/fhir/StructureDefinition/ext-PharmaceuticalTreatment.Identifier",
        "valueIdentifier": {
          "system": "urn:oid:2.16.840.1.113883.2.4.3.11.999.77.1.1",
          "value": "MBH_300_contactepisode"
        }
      }, {
        "url": "http://nictiz.nl/fhir/StructureDefinition/ext-Context-EpisodeOfCare",
        "valueReference": {
          "type": "EpisodeOfCare",
          "identifier": {
            "system": "urn:oid:2.16.840.1.113883.2.4.3.11.999.66.9200",
            "value": "MBH_300_contactepisode_EPISODE1"
          },
          "display": "relatie naar zorgepisode met identificatie: MBH_300_contactepisode_EPISODE1 || 2.16.840.1.113883.2.4.3.11.999.66.9200"
        }
      } ],
      "identifier": [ {
        "system": "urn:oid:2.16.840.1.113883.2.4.3.11.999.77.16076005.1",
        "value": "MBH_300_contactepisode_MA"
      } ],
      "status": "active",
      "intent": "order",
      "category": [ {
        "coding": [ {
          "system": "http://snomed.info/sct",
          "code": "33633005",
          "display": "voorschrijven van geneesmiddel"
        } ]
      } ],
      "medicationReference": {
        "reference": "urn:uuid:ca0c3ae9-6aff-11ec-0000-020000000000",
        "type": "Medication",
        "display": "ACENOCOUMAROL TABLET 1MG"
      },
      "subject": {
        "reference": "urn:uuid:8caf345e-6af8-11ec-0000-020000000000",
        "type": "Patient",
        "display": "Patient, H. XXX_Hoek"
      },
      "encounter": {
        "type": "Encounter",
        "identifier": {
          "system": "urn:oid:2.16.840.1.113883.2.4.3.11.999.66.2709",
          "value": "MBH_300_contactepisode_CONTACT1"
        },
        "display": "relatie naar contact met identificatie: MBH_300_contactepisode_CONTACT1 || 2.16.840.1.113883.2.4.3.11.999.66.2709"
      },
      "requester": {
        "reference": "urn:uuid:7af79824-6ac8-11ec-0000-020000000000",
        "type": "PractitionerRole",
        "display": "Healthcare professional (role), Peter van Pulver, Huisartsen, niet nader gespecificeerd, Huisartsenpraktijk Pulver & Partners"
      },
      "dosageInstruction": [ {
        "timing": {
          "repeat": {
            "frequency": 1,
            "period": 1,
            "periodUnit": "d"
          }
        },
        "route": {
          "coding": [ {
            "system": "urn:oid:2.16.840.1.113883.2.4.4.9",
            "code": "9",
            "display": "Oraal"
          } ]
        },
        "doseAndRate": [ {
          "doseQuantity": {
            "extension": [ {
              "url": "http://hl7.org/fhir/StructureDefinition/iso21090-PQ-translation",
              "valueQuantity": {
                "value": 2,
                "unit": "stuk",
                "system": "urn:oid:2.16.840.1.113883.2.4.4.1.900.2",
                "code": "245"
              }
            } ],
            "value": 2,
            "unit": "stuk",
            "system": "http://unitsofmeasure.org",
            "code": "1"
          }
        } ]
      } ]
    },
    "request": {
      "method": "POST",
      "url": "MedicationRequest"
    }
  }, {
    "fullUrl": "urn:uuid:af73ee89-6ac2-11ec-0000-020000000000",
    "resource": {
      "resourceType": "MedicationRequest",
      "meta": {
        "profile": [ "http://nictiz.nl/fhir/StructureDefinition/mp-DispenseRequest" ],
        "tag": [ {
          "system": "http://terminology.hl7.org/CodeSystem/common-tags",
          "code": "actionable"
        } ]
      },
      "text": {
        "status": "extensions",
        "div": "<div xmlns=\"http://www.w3.org/1999/xhtml\">\n            <table>\n              <caption>MedicationRequest. Subject: Patient, H. XXX_Hoek. Id: MBH_300_contactepisode_VV (urn:oid:2.16.840.1.113883.2.4.3.11.999.77.52711000146108.1), Categorie: <span title=\"verstrekkingsverzoek (52711000146108 - SNOMED CT)\">verstrekkingsverzoek</span>, Status: actief<span style=\"display: block;\">Intentie: aanvraag</span>\n                <span style=\"display: block;\">Aangevraagd door: Healthcare professional (role), Peter van Pulver, Huisartsen, niet nader gespecificeerd, Huisartsenpraktijk Pulver &amp; Partners</span>\n              </caption>\n              <tbody>\n                <tr>\n                  <th>Gebaseerd op</th>\n                  <td>relatie naar medicatieafspraak  met identificatie: MBH_300_contactepisode_MA || 2.16.840.1.113883.2.4.3.11.999.77.16076005.1 (Id: MBH_300_contactepisode_MA (urn:oid:2.16.840.1.113883.2.4.3.11.999.77.16076005.1))</td>\n                </tr>\n                <tr>\n                  <th>Medicatie</th>\n                  <td>ACENOCOUMAROL TABLET 1MG</td>\n                </tr>\n                <tr>\n                  <th>Gemaakt</th>\n                  <td>${DATE, T, D, +0}T08:00:00+02:00</td>\n                </tr>\n                <tr>\n                  <th>Toedieningsverzoek</th>\n                  <td>\n                    <div>Hoeveelheid: </div>\n                  </td>\n                </tr>\n              </tbody>\n            </table>\n          </div>"
      },
      "extension": [ {
        "url": "http://nictiz.nl/fhir/StructureDefinition/ext-PharmaceuticalTreatment.Identifier",
        "valueIdentifier": {
          "system": "urn:oid:2.16.840.1.113883.2.4.3.11.999.77.1.1",
          "value": "MBH_300_contactepisode"
        }
      }, {
        "url": "http://nictiz.nl/fhir/StructureDefinition/ext-Context-EpisodeOfCare",
        "valueReference": {
          "type": "EpisodeOfCare",
          "identifier": {
            "system": "urn:oid:2.16.840.1.113883.2.4.3.11.999.66.9200",
            "value": "MBH_300_contactepisode_EPISODE1"
          },
          "display": "relatie naar zorgepisode met identificatie: MBH_300_contactepisode_EPISODE1 || 2.16.840.1.113883.2.4.3.11.999.66.9200"
        }
      } ],
      "identifier": [ {
        "system": "urn:oid:2.16.840.1.113883.2.4.3.11.999.77.52711000146108.1",
        "value": "MBH_300_contactepisode_VV"
      } ],
      "status": "active",
      "intent": "order",
      "category": [ {
        "coding": [ {
          "system": "http://snomed.info/sct",
          "code": "52711000146108",
          "display": "verstrekkingsverzoek"
        } ]
      } ],
      "medicationReference": {
        "reference": "urn:uuid:ca0c3ae9-6aff-11ec-0000-020000000000",
        "type": "Medication",
        "display": "ACENOCOUMAROL TABLET 1MG"
      },
      "subject": {
        "reference": "urn:uuid:8caf345e-6af8-11ec-0000-020000000000",
        "type": "Patient",
        "display": "Patient, H. XXX_Hoek"
      },
      "encounter": {
        "type": "Encounter",
        "identifier": {
          "system": "urn:oid:2.16.840.1.113883.2.4.3.11.999.66.2709",
          "value": "MBH_300_contactepisode_CONTACT1"
        },
        "display": "relatie naar contact met identificatie: MBH_300_contactepisode_CONTACT1 || 2.16.840.1.113883.2.4.3.11.999.66.2709"
      },
      "authoredOn": "${DATE, T, D, +0}T08:00:00+02:00",
      "requester": {
        "reference": "urn:uuid:7af79824-6ac8-11ec-0000-020000000000",
        "type": "PractitionerRole",
        "display": "Healthcare professional (role), Peter van Pulver, Huisartsen, niet nader gespecificeerd, Huisartsenpraktijk Pulver & Partners"
      },
      "performer": {
        "reference": "urn:uuid:10079464-6b64-11ec-0000-020000000000",
        "type": "Organization",
        "display": "Healthcare provider (organization), Apotheek De Gulle Gaper"
      },
      "basedOn": [ {
        "type": "MedicationRequest",
        "identifier": {
          "system": "urn:oid:2.16.840.1.113883.2.4.3.11.999.77.16076005.1",
          "value": "MBH_300_contactepisode_MA"
        },
        "display": "relatie naar medicatieafspraak  met identificatie: MBH_300_contactepisode_MA || 2.16.840.1.113883.2.4.3.11.999.77.16076005.1"
      } ],
      "dispenseRequest": {
        "quantity": {
          "extension": [ {
            "url": "http://hl7.org/fhir/StructureDefinition/iso21090-PQ-translation",
            "valueQuantity": {
              "value": 60,
              "unit": "stuk",
              "system": "urn:oid:2.16.840.1.113883.2.4.4.1.900.2",
              "code": "245"
            }
          } ],
          "value": 60,
          "unit": "stuk",
          "system": "http://unitsofmeasure.org",
          "code": "1"
        }
      }
    },
    "request": {
      "method": "POST",
      "url": "MedicationRequest"
    }
  }, {
    "fullUrl": "urn:uuid:8caf345e-6af8-11ec-0000-020000000000",
    "resource": {
      "resourceType": "Patient",
      "meta": {
        "profile": [ "http://nictiz.nl/fhir/StructureDefinition/nl-core-Patient" ]
      },
      "text": {
        "status": "extensions",
        "div": "<div xmlns=\"http://www.w3.org/1999/xhtml\">\n            <div>Id 999900638 (BSN), <span title=\"Naamsamenstelling: Eigennaam\">H. XXX_Hoek</span>, Man, 5 november 1963</div>\n          </div>"
      },
      "identifier": [ {
        "system": "http://fhir.nl/fhir/NamingSystem/bsn",
        "value": "999900638"
      } ],
      "name": [ {
        "extension": [ {
          "url": "http://hl7.org/fhir/StructureDefinition/humanname-assembly-order",
          "valueCode": "NL1"
        } ],
        "use": "official",
        "text": "H. XXX_Hoek",
        "family": "XXX_Hoek",
        "_family": {
          "extension": [ {
            "url": "http://hl7.org/fhir/StructureDefinition/humanname-own-name",
            "valueString": "XXX_Hoek"
          } ]
        },
        "given": [ "H." ],
        "_given": [ {
          "extension": [ {
            "url": "http://hl7.org/fhir/StructureDefinition/iso21090-EN-qualifier",
            "valueCode": "IN"
          } ]
        } ]
      } ],
      "gender": "male",
      "_gender": {
        "extension": [ {
          "url": "http://nictiz.nl/fhir/StructureDefinition/ext-CodeSpecification",
          "valueCodeableConcept": {
            "coding": [ {
              "system": "http://terminology.hl7.org/CodeSystem/v3-AdministrativeGender",
              "code": "M",
              "display": "Man"
            } ]
          }
        } ]
      },
      "birthDate": "1963-11-05"
    },
    "request": {
      "method": "POST",
      "url": "Patient"
    }
  }, {
    "fullUrl": "urn:uuid:7af79824-6ac8-11ec-0000-020000000000",
    "resource": {
      "resourceType": "PractitionerRole",
      "meta": {
        "profile": [ "http://nictiz.nl/fhir/StructureDefinition/nl-core-HealthProfessional-PractitionerRole" ]
      },
      "text": {
        "status": "extensions",
        "div": "<div xmlns=\"http://www.w3.org/1999/xhtml\">\n            <table>\n              <caption>Zorgverlenerrol. </caption>\n              <tbody>\n                <tr>\n                  <th>Zorgverlener</th>\n                  <td>\n                    <div>Healthcare professional (person), Peter van Pulver</div>\n                    <div>Healthcare provider (organization), Huisartsenpraktijk Pulver &amp; Partners</div>\n                  </td>\n                </tr>\n                <tr>\n                  <th>Specialisme</th>\n                  <td>\n                    <span title=\"Huisartsen, niet nader gespecificeerd (0100 - AGB-medisch specialisme)\">Huisartsen, niet nader gespecificeerd</span>\n                  </td>\n                </tr>\n                <tr>\n                  <th>Contactgegevens</th>\n                  <td>\n                    <a href=\"tel:1645645000\">1645645000</a> (Tel Werk)</td>\n                </tr>\n              </tbody>\n            </table>\n          </div>"
      },
      "practitioner": {
        "reference": "urn:uuid:b3d44558-6acf-11ec-0000-020000000000",
        "type": "Practitioner",
        "display": "Healthcare professional (person), Peter van Pulver"
      },
      "organization": {
        "reference": "urn:uuid:7fa869d8-6b44-11ec-0000-020000000000",
        "type": "Organization",
        "display": "Healthcare provider (organization), Huisartsenpraktijk Pulver & Partners"
      },
      "specialty": [ {
        "coding": [ {
          "system": "urn:oid:2.16.840.1.113883.2.4.6.7",
          "version": "2020-10-23T00:00:00",
          "code": "0100",
          "display": "Huisartsen, niet nader gespecificeerd"
        } ]
      } ],
      "telecom": [ {
        "system": "phone",
        "value": "1645645000",
        "use": "work"
      } ]
    },
    "request": {
      "method": "POST",
      "url": "PractitionerRole"
    }
  }, {
    "fullUrl": "urn:uuid:b3d44558-6acf-11ec-0000-020000000000",
    "resource": {
      "resourceType": "Practitioner",
      "meta": {
        "profile": [ "http://nictiz.nl/fhir/StructureDefinition/nl-core-HealthProfessional-Practitioner" ]
      },
      "text": {
        "status": "extensions",
        "div": "<div xmlns=\"http://www.w3.org/1999/xhtml\">\n            <div>Id 000001111 (UZI-NR-PERS), Peter van Pulver</div>\n            <div>\n              <a href=\"tel:1645645000\">1645645000</a> (Tel Werk)</div>\n          </div>"
      },
      "identifier": [ {
        "system": "http://fhir.nl/fhir/NamingSystem/uzi-nr-pers",
        "value": "000001111"
      } ],
      "name": [ {
        "use": "official",
        "text": "Peter van Pulver",
        "family": "van Pulver",
        "_family": {
          "extension": [ {
            "url": "http://hl7.org/fhir/StructureDefinition/humanname-own-prefix",
            "valueString": "van"
          }, {
            "url": "http://hl7.org/fhir/StructureDefinition/humanname-own-name",
            "valueString": "Pulver"
          } ]
        },
        "given": [ "Peter" ],
        "_given": [ {
          "extension": [ {
            "url": "http://hl7.org/fhir/StructureDefinition/iso21090-EN-qualifier",
            "valueCode": "BR"
          } ]
        } ]
      } ],
      "telecom": [ {
        "system": "phone",
        "value": "1645645000",
        "use": "work"
      } ]
    },
    "request": {
      "method": "POST",
      "url": "Practitioner"
    }
  }, {
    "fullUrl": "urn:uuid:7fa869d8-6b44-11ec-0000-020000000000",
    "resource": {
      "resourceType": "Organization",
      "meta": {
        "profile": [ "http://nictiz.nl/fhir/StructureDefinition/nl-core-HealthcareProvider-Organization" ]
      },
      "text": {
        "status": "extensions",
        "div": "<div xmlns=\"http://www.w3.org/1999/xhtml\">\n            <table>\n              <caption>Organisatie. Id: 00001111 (URA)</caption>\n              <tbody>\n                <tr>\n                  <th>Naam</th>\n                  <td>Huisartsenpraktijk Pulver &amp; Partners</td>\n                </tr>\n                <tr>\n                  <th>Adres</th>\n                  <td>Dorpsstraat 1, 1234AA Ons Dorp (Werk)</td>\n                </tr>\n              </tbody>\n            </table>\n          </div>"
      },
      "identifier": [ {
        "system": "http://fhir.nl/fhir/NamingSystem/ura",
        "value": "00001111"
      } ],
      "name": "Huisartsenpraktijk Pulver & Partners",
      "address": [ {
        "extension": [ {
          "url": "http://nictiz.nl/fhir/StructureDefinition/ext-AddressInformation.AddressType",
          "valueCodeableConcept": {
            "coding": [ {
              "system": "http://terminology.hl7.org/CodeSystem/v3-AddressUse",
              "code": "WP",
              "display": "Werkadres"
            } ]
          }
        } ],
        "use": "work",
        "line": [ "Dorpsstraat 1" ],
        "_line": [ {
          "extension": [ {
            "url": "http://hl7.org/fhir/StructureDefinition/iso21090-ADXP-streetName",
            "valueString": "Dorpsstraat"
          }, {
            "url": "http://hl7.org/fhir/StructureDefinition/iso21090-ADXP-houseNumber",
            "valueString": "1"
          } ]
        } ],
        "city": "Ons Dorp",
        "postalCode": "1234AA"
      } ]
    },
    "request": {
      "method": "POST",
      "url": "Organization"
    }
  }, {
    "fullUrl": "urn:uuid:10079464-6b64-11ec-0000-020000000000",
    "resource": {
      "resourceType": "Organization",
      "meta": {
        "profile": [ "http://nictiz.nl/fhir/StructureDefinition/nl-core-HealthcareProvider-Organization" ]
      },
      "text": {
        "status": "extensions",
        "div": "<div xmlns=\"http://www.w3.org/1999/xhtml\">\n            <table>\n              <caption>Organisatie. Id: 01236578 (URA)</caption>\n              <tbody>\n                <tr>\n                  <th>Naam</th>\n                  <td>Apotheek De Gulle Gaper</td>\n                </tr>\n                <tr>\n                  <th>Adres</th>\n                  <td>Dorpsstraat 12 A, 1234AA Ons Dorp (Werk)</td>\n                </tr>\n              </tbody>\n            </table>\n          </div>"
      },
      "identifier": [ {
        "system": "http://fhir.nl/fhir/NamingSystem/ura",
        "value": "01236578"
      } ],
      "name": "Apotheek De Gulle Gaper",
      "address": [ {
        "extension": [ {
          "url": "http://nictiz.nl/fhir/StructureDefinition/ext-AddressInformation.AddressType",
          "valueCodeableConcept": {
            "coding": [ {
              "system": "http://terminology.hl7.org/CodeSystem/v3-AddressUse",
              "code": "WP",
              "display": "Werkadres"
            } ]
          }
        } ],
        "use": "work",
        "line": [ "Dorpsstraat 12 A" ],
        "_line": [ {
          "extension": [ {
            "url": "http://hl7.org/fhir/StructureDefinition/iso21090-ADXP-streetName",
            "valueString": "Dorpsstraat"
          }, {
            "url": "http://hl7.org/fhir/StructureDefinition/iso21090-ADXP-houseNumber",
            "valueString": "12"
          }, {
            "url": "http://hl7.org/fhir/StructureDefinition/iso21090-ADXP-buildingNumberSuffix",
            "valueString": "A"
          } ]
        } ],
        "city": "Ons Dorp",
        "postalCode": "1234AA"
      } ]
    },
    "request": {
      "method": "POST",
      "url": "Organization"
    }
  }, {
    "fullUrl": "urn:uuid:ca0c3ae9-6aff-11ec-0000-020000000000",
    "resource": {
      "resourceType": "Medication",
      "meta": {
        "profile": [ "http://nictiz.nl/fhir/StructureDefinition/mp-PharmaceuticalProduct" ]
      },
      "text": {
        "status": "extensions",
        "div": "<div xmlns=\"http://www.w3.org/1999/xhtml\">\n            <table>\n              <tbody>\n                <tr>\n                  <th>Code</th>\n                  <td>\n                    <span title=\"ACENOCOUMAROL TABLET 1MG (7323 - G-Standaard PRK)\">ACENOCOUMAROL TABLET 1MG</span>\n                  </td>\n                </tr>\n              </tbody>\n            </table>\n          </div>"
      },
      "code": {
        "coding": [ {
          "system": "urn:oid:2.16.840.1.113883.2.4.4.10",
          "code": "7323",
          "display": "ACENOCOUMAROL TABLET 1MG",
          "userSelected": true
        }, {
          "system": "urn:oid:2.16.840.1.113883.2.4.4.1",
          "code": "20303",
          "display": "ACENOCOUMAROL TABLET 1MG"
        } ],
        "text": "ACENOCOUMAROL TABLET 1MG"
      }
    },
    "request": {
      "method": "POST",
      "url": "Medication"
    }
  } ]
}