<Bundle xmlns="http://hl7.org/fhir">
  <id value="mv-mp-vo-tst-4-2-a-nierfunctie-NHG-v30"/>
  <meta>
    <profile value="http://nictiz.nl/fhir/StructureDefinition/mp-MedicationPrescription-Bundle"/>
  </meta>
  <type value="transaction"/>
  <entry>
    <fullUrl value="urn:uuid:14749b3e-6ad7-11ec-0000-020000000000"/>
    <resource>
      <MedicationRequest>
        <meta>
          <profile value="http://nictiz.nl/fhir/StructureDefinition/mp-MedicationAgreement"/>
          <tag>
            <system value="http://terminology.hl7.org/CodeSystem/common-tags"/>
            <code value="actionable"/>
          </tag>
        </meta>
        <text>
          <status value="extensions"/>
          <div xmlns="http://www.w3.org/1999/xhtml">
            <table>
              <caption>MedicationRequest. Subject: Patient, E. XXX_Doppen. Id: MBH_300_Lengte_Gewicht_MA_1 (urn:oid:2.16.840.1.113883.2.4.3.11.999.77.16076005.1), Categorie: <span title="voorschrijven van geneesmiddel (33633005 - SNOMED CT)">voorschrijven van geneesmiddel</span>, Status: actief<span style="display: block;">Intentie: aanvraag</span>
                <span style="display: block;">Aangevraagd door: Healthcare professional (role), Peter van Pulver, Huisartsen, niet nader gespecificeerd, Huisartsenpraktijk Pulver &amp; Partners</span>
              </caption>
              <tbody>
                <tr>
                  <th>Medicatie</th>
                  <td>ACETYLSALICYLZUUR TABLETMSR 100MG</td>
                </tr>
                <tr>
                  <th>Gemaakt</th>
                  <td>${DATE, T, D, +0}T07:05:00+02:00</td>
                </tr>
                <tr>
                  <th>Doseerinstructie</th>
                  <td>
                    <div>Timing: <div>eenmalig per dag</div>
                    </div>
                    <div>Toedieningsweg: <span title="Oraal (9 - G-Standaard thesaurus subtabel 0007)">Oraal</span>
                    </div>
                    <div>Dosering: doseAndRate TODO</div>
                  </td>
                </tr>
              </tbody>
            </table>
          </div>
        </text>
        <extension url="http://nictiz.nl/fhir/StructureDefinition/ext-RenderedDosageInstruction">
          <valueString value="Vanaf T, 1 maal per dag 1 stuk, Oraal"/>
        </extension>
        <extension url="http://nictiz.nl/fhir/StructureDefinition/ext-TimeInterval.Period">
          <valuePeriod>
            <start value="${DATE, T, D, +0}T00:00:00+02:00"/>
          </valuePeriod>
        </extension>
        <extension url="http://nictiz.nl/fhir/StructureDefinition/ext-PharmaceuticalTreatment.Identifier">
          <valueIdentifier>
            <system value="urn:oid:2.16.840.1.113883.2.4.3.11.999.77.1.1"/>
            <value value="MBH_300_Lengte_Gewicht"/>
          </valueIdentifier>
        </extension>
        <identifier>
          <system value="urn:oid:2.16.840.1.113883.2.4.3.11.999.77.16076005.1"/>
          <value value="MBH_300_Lengte_Gewicht_MA_1"/>
        </identifier>
        <status value="active"/>
        <intent value="order"/>
        <category>
          <coding>
            <system value="http://snomed.info/sct"/>
            <code value="33633005"/>
            <display value="voorschrijven van geneesmiddel"/>
          </coding>
        </category>
        <medicationReference>
          <reference value="urn:uuid:a07ec504-6ac4-11ec-0000-020000000000"/>
          <type value="Medication"/>
          <display value="ACETYLSALICYLZUUR TABLETMSR 100MG"/>
        </medicationReference>
        <subject>
          <reference value="urn:uuid:834e3f9e-6ad4-11ec-0000-020000000000"/>
          <type value="Patient"/>
          <display value="Patient, E. XXX_Doppen"/>
        </subject>
        <authoredOn value="${DATE, T, D, +0}T07:05:00+02:00"/>
        <requester>
          <reference value="urn:uuid:7af79824-6ac8-11ec-0000-020000000000"/>
          <type value="PractitionerRole"/>
          <display value="Healthcare professional (role), Peter van Pulver, Huisartsen, niet nader gespecificeerd, Huisartsenpraktijk Pulver &amp; Partners"/>
        </requester>
        <dosageInstruction>
          <timing>
            <repeat>
              <frequency value="1"/>
              <period value="1"/>
              <periodUnit value="d"/>
            </repeat>
          </timing>
          <route>
            <coding>
              <system value="urn:oid:2.16.840.1.113883.2.4.4.9"/>
              <code value="9"/>
              <display value="Oraal"/>
            </coding>
          </route>
          <doseAndRate>
            <doseQuantity>
              <extension url="http://hl7.org/fhir/StructureDefinition/iso21090-PQ-translation">
                <valueQuantity>
                  <value value="1"/>
                  <unit value="stuk"/>
                  <system value="urn:oid:2.16.840.1.113883.2.4.4.1.900.2"/>
                  <code value="245"/>
                </valueQuantity>
              </extension>
              <value value="1"/>
              <unit value="stuk"/>
              <system value="http://unitsofmeasure.org"/>
              <code value="1"/>
            </doseQuantity>
          </doseAndRate>
        </dosageInstruction>
      </MedicationRequest>
    </resource>
    <request>
      <method value="POST"/>
      <url value="MedicationRequest"/>
    </request>
  </entry>
  <entry>
    <fullUrl value="urn:uuid:d9899d5d-6b11-11ec-0000-020000000000"/>
    <resource>
      <MedicationRequest>
        <meta>
          <profile value="http://nictiz.nl/fhir/StructureDefinition/mp-DispenseRequest"/>
          <tag>
            <system value="http://terminology.hl7.org/CodeSystem/common-tags"/>
            <code value="actionable"/>
          </tag>
        </meta>
        <text>
          <status value="extensions"/>
          <div xmlns="http://www.w3.org/1999/xhtml">
            <table>
              <caption>MedicationRequest. Subject: Patient, E. XXX_Doppen. Id: MBH_300_Lengte_Gewicht_VV_1 (urn:oid:2.16.840.1.113883.2.4.3.11.999.77.52711000146108.1), Categorie: <span title="verstrekkingsverzoek (52711000146108 - SNOMED CT)">verstrekkingsverzoek</span>, Status: actief<span style="display: block;">Intentie: aanvraag</span>
                <span style="display: block;">Aangevraagd door: Healthcare professional (role), Peter van Pulver, Huisartsen, niet nader gespecificeerd, Huisartsenpraktijk Pulver &amp; Partners</span>
              </caption>
              <tbody>
                <tr>
                  <th>Gebaseerd op</th>
                  <td>relatie naar medicatieafspraak  met identificatie: MBH_300_Lengte_Gewicht_MA_1 || 2.16.840.1.113883.2.4.3.11.999.77.16076005.1 (Id: MBH_300_Lengte_Gewicht_MA_1 (urn:oid:2.16.840.1.113883.2.4.3.11.999.77.16076005.1))</td>
                </tr>
                <tr>
                  <th>Medicatie</th>
                  <td>ACETYLSALICYLZUUR TABLETMSR 100MG</td>
                </tr>
                <tr>
                  <th>Gemaakt</th>
                  <td>${DATE, T, D, +0}T07:05:00+02:00</td>
                </tr>
                <tr>
                  <th>Toedieningsverzoek</th>
                  <td>
                    <div>Hoeveelheid: </div>
                  </td>
                </tr>
              </tbody>
            </table>
          </div>
        </text>
        <extension url="http://nictiz.nl/fhir/StructureDefinition/ext-PharmaceuticalTreatment.Identifier">
          <valueIdentifier>
            <system value="urn:oid:2.16.840.1.113883.2.4.3.11.999.77.1.1"/>
            <value value="MBH_300_Lengte_Gewicht"/>
          </valueIdentifier>
        </extension>
        <identifier>
          <system value="urn:oid:2.16.840.1.113883.2.4.3.11.999.77.52711000146108.1"/>
          <value value="MBH_300_Lengte_Gewicht_VV_1"/>
        </identifier>
        <status value="active"/>
        <intent value="order"/>
        <category>
          <coding>
            <system value="http://snomed.info/sct"/>
            <code value="52711000146108"/>
            <display value="verstrekkingsverzoek"/>
          </coding>
        </category>
        <medicationReference>
          <reference value="urn:uuid:a07ec504-6ac4-11ec-0000-020000000000"/>
          <type value="Medication"/>
          <display value="ACETYLSALICYLZUUR TABLETMSR 100MG"/>
        </medicationReference>
        <subject>
          <reference value="urn:uuid:834e3f9e-6ad4-11ec-0000-020000000000"/>
          <type value="Patient"/>
          <display value="Patient, E. XXX_Doppen"/>
        </subject>
        <authoredOn value="${DATE, T, D, +0}T07:05:00+02:00"/>
        <requester>
          <reference value="urn:uuid:7af79824-6ac8-11ec-0000-020000000000"/>
          <type value="PractitionerRole"/>
          <display value="Healthcare professional (role), Peter van Pulver, Huisartsen, niet nader gespecificeerd, Huisartsenpraktijk Pulver &amp; Partners"/>
        </requester>
        <performer>
          <reference value="urn:uuid:98d231d8-6b0c-11ec-0000-020000000000"/>
          <type value="Organization"/>
          <display value="Healthcare provider (organization), Apotheek De Gulle Gaper"/>
        </performer>
        <basedOn>
          <type value="MedicationRequest"/>
          <identifier>
            <system value="urn:oid:2.16.840.1.113883.2.4.3.11.999.77.16076005.1"/>
            <value value="MBH_300_Lengte_Gewicht_MA_1"/>
          </identifier>
          <display value="relatie naar medicatieafspraak  met identificatie: MBH_300_Lengte_Gewicht_MA_1 || 2.16.840.1.113883.2.4.3.11.999.77.16076005.1"/>
        </basedOn>
        <dispenseRequest>
          <quantity>
            <extension url="http://hl7.org/fhir/StructureDefinition/iso21090-PQ-translation">
              <valueQuantity>
                <value value="180"/>
                <unit value="stuk"/>
                <system value="urn:oid:2.16.840.1.113883.2.4.4.1.900.2"/>
                <code value="245"/>
              </valueQuantity>
            </extension>
            <value value="180"/>
            <unit value="stuk"/>
            <system value="http://unitsofmeasure.org"/>
            <code value="1"/>
          </quantity>
        </dispenseRequest>
      </MedicationRequest>
    </resource>
    <request>
      <method value="POST"/>
      <url value="MedicationRequest"/>
    </request>
  </entry>
  <entry>
    <fullUrl value="urn:uuid:36478a8a-bc03-11ed-1316-020000000000"/>
    <resource>
      <Observation>
        <meta>
          <profile value="http://nictiz.nl/fhir/StructureDefinition/nl-core-LaboratoryTestResult"/>
        </meta>
        <text>
          <status value="extensions"/>
          <div xmlns="http://www.w3.org/1999/xhtml">
            <table>
              <caption>Observatie/bepaling. Subject: Patient, Eduardo XXX_Doppen. Id: 11111 (urn:oid:2.16.840.1.113883.2.4.3.11.999.25.4298.2), Categorie: <span title="Laboratory (laboratory - http://terminology.hl7.org/CodeSystem/observation-category)">Laboratory</span>, Status: definitief<span style="display: block;">Uitvoerende: Healthcare provider (organization), Klinisch chemisch Lab 't Proefje</span>
              </caption>
              <tbody>
                <tr>
                  <th>Bepalingdatum/tijd</th>
                  <td colspan="3">${DATE, T, D, -20}</td>
                </tr>
                <tr>
                  <th>Specimen</th>
                  <td colspan="3">monster</td>
                </tr>
                <tr>
                  <th>Code</th>
                  <th>Waarde</th>
                  <th>Interpretatie</th>
                  <th>Referentiewaarden</th>
                </tr>
                <tr>
                  <td>
                    <span title="eGFR volgens CKD-EPI formule (3583 - nhg-tabel-45-diagnostische-bepalingen)">eGFR volgens CKD-EPI formule</span>
                  </td>
                  <td>97 mL/min/{1.73_m2}</td>
                  <td>Iets bovengemiddeld</td>
                  <td>
                    <div>90 mL/min/{1.73_m2} - </div>
                  </td>
                </tr>
              </tbody>
            </table>
          </div>
        </text>
        <extension url="http://nictiz.nl/fhir/StructureDefinition/ext-EdifactReferenceNumber">
          <valueString value="111222"/>
        </extension>
        <identifier>
          <system value="urn:oid:2.16.840.1.113883.2.4.3.11.999.25.4298.2"/>
          <value value="11111"/>
        </identifier>
        <status value="final"/>
        <category>
          <coding>
            <system value="http://terminology.hl7.org/CodeSystem/observation-category"/>
            <code value="laboratory"/>
            <display value="Laboratory"/>
          </coding>
        </category>
        <code>
          <coding>
            <system value="https://referentiemodel.nhg.org/tabellen/nhg-tabel-45-diagnostische-bepalingen"/>
            <code value="3583"/>
            <display value="eGFR volgens CKD-EPI formule"/>
          </coding>
        </code>
        <subject>
          <reference value="urn:uuid:834e3f9e-6ad4-11ec-0000-020000000000"/>
          <type value="Patient"/>
          <display value="Patient, Eduardo XXX_Doppen"/>
        </subject>
        <effectiveDateTime value="${DATE, T, D, -20}"/>
        <performer>
          <reference value="urn:uuid:36478a4e-bc03-11ed-1316-020000000000"/>
          <type value="Organization"/>
          <display value="Healthcare provider (organization), Klinisch chemisch Lab 't Proefje"/>
        </performer>
        <valueQuantity>
          <value value="97"/>
          <unit value="mL/min/{1.73_m2}"/>
          <system value="http://unitsofmeasure.org"/>
          <code value="mL/min/{1.73_m2}"/>
        </valueQuantity>
        <interpretation>
          <text value="Iets bovengemiddeld"/>
        </interpretation>
        <specimen>
          <reference value="urn:uuid:36478ae4-bc03-11ed-1316-020000000000"/>
          <type value="Specimen"/>
          <display value="monster"/>
        </specimen>
        <referenceRange>
          <low>
            <value value="90"/>
            <unit value="mL/min/{1.73_m2}"/>
            <system value="http://unitsofmeasure.org"/>
            <code value="mL/min/{1.73_m2}"/>
          </low>
        </referenceRange>
      </Observation>
    </resource>
    <request>
      <method value="POST"/>
      <url value="Observation"/>
    </request>
  </entry>
  <entry>
    <fullUrl value="urn:uuid:36478aa8-bc03-11ed-1316-020000000000"/>
    <resource>
      <Observation>
        <meta>
          <profile value="http://nictiz.nl/fhir/StructureDefinition/nl-core-LaboratoryTestResult"/>
        </meta>
        <text>
          <status value="extensions"/>
          <div xmlns="http://www.w3.org/1999/xhtml">
            <table>
              <caption>Observatie/bepaling. Subject: Patient, Eduardo XXX_Doppen. Id: 22222 (urn:oid:2.16.840.1.113883.2.4.3.11.999.25.4298.2), Categorie: <span title="Laboratory (laboratory - http://terminology.hl7.org/CodeSystem/observation-category)">Laboratory</span>, Status: definitief<span style="display: block;">Uitvoerende: Healthcare provider (organization), Klinisch chemisch Lab 't Proefje</span>
              </caption>
              <tbody>
                <tr>
                  <th>Bepalingdatum/tijd</th>
                  <td colspan="3">${DATE, T, D, -20}</td>
                </tr>
                <tr>
                  <th>Methode</th>
                  <td colspan="3">
                    <span title="enzyme method (258026004 - SNOMED CT)">enzyme method</span>
                  </td>
                </tr>
                <tr>
                  <th>Specimen</th>
                  <td colspan="3">monster</td>
                </tr>
                <tr>
                  <th>Code</th>
                  <th>Waarde</th>
                  <th>Interpretatie</th>
                  <th>Referentiewaarden</th>
                </tr>
                <tr>
                  <td>
                    <span title="creatinine (523 - nhg-tabel-45-diagnostische-bepalingen)">creatinine</span>
                  </td>
                  <td>135 umol/l</td>
                  <td>
                    <span title="boven referentiebereik (281302008 - SNOMED CT)">boven referentiebereik</span>, Creatinine iets hoger dan normaal.</td>
                  <td>
                    <div>60 umol/l - 110 umol/l</div>
                  </td>
                </tr>
              </tbody>
            </table>
          </div>
        </text>
        <extension url="http://nictiz.nl/fhir/StructureDefinition/ext-EdifactReferenceNumber">
          <valueString value="111222"/>
        </extension>
        <identifier>
          <system value="urn:oid:2.16.840.1.113883.2.4.3.11.999.25.4298.2"/>
          <value value="22222"/>
        </identifier>
        <status value="final"/>
        <category>
          <coding>
            <system value="http://terminology.hl7.org/CodeSystem/observation-category"/>
            <code value="laboratory"/>
            <display value="Laboratory"/>
          </coding>
        </category>
        <code>
          <coding>
            <system value="https://referentiemodel.nhg.org/tabellen/nhg-tabel-45-diagnostische-bepalingen"/>
            <code value="523"/>
            <display value="creatinine"/>
          </coding>
        </code>
        <subject>
          <reference value="urn:uuid:834e3f9e-6ad4-11ec-0000-020000000000"/>
          <type value="Patient"/>
          <display value="Patient, Eduardo XXX_Doppen"/>
        </subject>
        <effectiveDateTime value="${DATE, T, D, -20}"/>
        <performer>
          <reference value="urn:uuid:36478a4e-bc03-11ed-1316-020000000000"/>
          <type value="Organization"/>
          <display value="Healthcare provider (organization), Klinisch chemisch Lab 't Proefje"/>
        </performer>
        <valueQuantity>
          <value value="135"/>
          <unit value="umol/l"/>
          <system value="http://unitsofmeasure.org"/>
          <code value="umol/l"/>
        </valueQuantity>
        <interpretation>
          <coding>
            <system value="http://snomed.info/sct"/>
            <code value="281302008"/>
            <display value="boven referentiebereik"/>
          </coding>
          <coding>
            <system value="http://terminology.hl7.org/CodeSystem/v3-ObservationInterpretation"/>
            <code value="H"/>
            <display value="High"/>
          </coding>
        </interpretation>
        <interpretation>
          <text value="Creatinine iets hoger dan normaal."/>
        </interpretation>
        <method>
          <coding>
            <system value="http://snomed.info/sct"/>
            <code value="258026004"/>
            <display value="enzyme method"/>
          </coding>
        </method>
        <specimen>
          <reference value="urn:uuid:36478ae4-bc03-11ed-1316-020000000000"/>
          <type value="Specimen"/>
          <display value="monster"/>
        </specimen>
        <referenceRange>
          <low>
            <value value="60"/>
            <unit value="umol/l"/>
            <system value="http://unitsofmeasure.org"/>
            <code value="umol/l"/>
          </low>
          <high>
            <value value="110"/>
            <unit value="umol/l"/>
            <system value="http://unitsofmeasure.org"/>
            <code value="umol/l"/>
          </high>
        </referenceRange>
      </Observation>
    </resource>
    <request>
      <method value="POST"/>
      <url value="Observation"/>
    </request>
  </entry>
  <entry>
    <fullUrl value="urn:uuid:36478ae4-bc03-11ed-1316-020000000000"/>
    <resource>
      <Specimen>
        <meta>
          <profile value="http://nictiz.nl/fhir/StructureDefinition/nl-core-LaboratoryTestResult.Specimen"/>
        </meta>
        <text>
          <status value="extensions"/>
          <div xmlns="http://www.w3.org/1999/xhtml">
            <table>
              <caption>Specimen. Subject: Patient, Eduardo XXX_Doppen. Id: 1111 (urn:oid:2.16.840.1.113883.2.4.3.11.999.25.4267.2)</caption>
              <tfoot>
                <tr>
                  <td colspan="2">Serum afgenomen bij patiënt.</td>
                </tr>
              </tfoot>
              <tbody>
                <tr>
                  <th>Inzameling</th>
                  <td>${DATE, T, D, -20}</td>
                </tr>
              </tbody>
            </table>
          </div>
        </text>
        <identifier>
          <system value="urn:oid:2.16.840.1.113883.2.4.3.11.999.25.4267.2"/>
          <value value="1111"/>
        </identifier>
        <subject>
          <reference value="urn:uuid:834e3f9e-6ad4-11ec-0000-020000000000"/>
          <type value="Patient"/>
          <display value="Patient, Eduardo XXX_Doppen"/>
        </subject>
        <collection>
          <collectedDateTime value="${DATE, T, D, -20}"/>
        </collection>
        <note>
          <text value="Serum afgenomen bij patiënt."/>
        </note>
      </Specimen>
    </resource>
    <request>
      <method value="POST"/>
      <url value="Specimen"/>
    </request>
  </entry>
  <entry>
    <fullUrl value="urn:uuid:834e3f9e-6ad4-11ec-0000-020000000000"/>
    <resource>
      <Patient>
        <meta>
          <profile value="http://nictiz.nl/fhir/StructureDefinition/nl-core-Patient"/>
        </meta>
        <text>
          <status value="extensions"/>
          <div xmlns="http://www.w3.org/1999/xhtml">
            <div>Id 999900511 (BSN), <span title="Naamsamenstelling: Eigennaam">E. XXX_Doppen</span>, Man, 24 oktober 1963</div>
          </div>
        </text>
        <identifier>
          <system value="http://fhir.nl/fhir/NamingSystem/bsn"/>
          <value value="999900511"/>
        </identifier>
        <name>
          <extension url="http://hl7.org/fhir/StructureDefinition/humanname-assembly-order">
            <valueCode value="NL1"/>
          </extension>
          <use value="official"/>
          <text value="E. XXX_Doppen"/>
          <family value="XXX_Doppen">
            <extension url="http://hl7.org/fhir/StructureDefinition/humanname-own-name">
              <valueString value="XXX_Doppen"/>
            </extension>
          </family>
          <given value="E.">
            <extension url="http://hl7.org/fhir/StructureDefinition/iso21090-EN-qualifier">
              <valueCode value="IN"/>
            </extension>
          </given>
        </name>
        <gender value="male">
          <extension url="http://nictiz.nl/fhir/StructureDefinition/ext-CodeSpecification">
            <valueCodeableConcept>
              <coding>
                <system value="http://terminology.hl7.org/CodeSystem/v3-AdministrativeGender"/>
                <code value="M"/>
                <display value="Man"/>
              </coding>
            </valueCodeableConcept>
          </extension>
        </gender>
        <birthDate value="1963-10-24"/>
      </Patient>
    </resource>
    <request>
      <method value="POST"/>
      <url value="Patient"/>
    </request>
  </entry>
  <entry>
    <fullUrl value="urn:uuid:7af79824-6ac8-11ec-0000-020000000000"/>
    <resource>
      <PractitionerRole>
        <meta>
          <profile value="http://nictiz.nl/fhir/StructureDefinition/nl-core-HealthProfessional-PractitionerRole"/>
        </meta>
        <text>
          <status value="extensions"/>
          <div xmlns="http://www.w3.org/1999/xhtml">
            <table>
              <caption>Zorgverlenerrol. </caption>
              <tbody>
                <tr>
                  <th>Zorgverlener</th>
                  <td>
                    <div>Healthcare professional (person), Peter van Pulver</div>
                    <div>Healthcare provider (organization), Huisartsenpraktijk Pulver &amp; Partners</div>
                  </td>
                </tr>
                <tr>
                  <th>Specialisme</th>
                  <td>
                    <span title="Huisartsen, niet nader gespecificeerd (0100 - AGB-medisch specialisme)">Huisartsen, niet nader gespecificeerd</span>
                  </td>
                </tr>
                <tr>
                  <th>Contactgegevens</th>
                  <td>
                    <a href="tel:1645645000">1645645000</a> (Tel Werk)</td>
                </tr>
              </tbody>
            </table>
          </div>
        </text>
        <practitioner>
          <reference value="urn:uuid:b3d44558-6acf-11ec-0000-020000000000"/>
          <type value="Practitioner"/>
          <display value="Healthcare professional (person), Peter van Pulver"/>
        </practitioner>
        <organization>
          <reference value="urn:uuid:7fa869d8-6b44-11ec-0000-020000000000"/>
          <type value="Organization"/>
          <display value="Healthcare provider (organization), Huisartsenpraktijk Pulver &amp; Partners"/>
        </organization>
        <specialty>
          <coding>
            <system value="urn:oid:2.16.840.1.113883.2.4.6.7"/>
            <version value="2020-10-23T00:00:00"/>
            <code value="0100"/>
            <display value="Huisartsen, niet nader gespecificeerd"/>
          </coding>
        </specialty>
        <telecom>
          <system value="phone"/>
          <value value="1645645000"/>
          <use value="work"/>
        </telecom>
      </PractitionerRole>
    </resource>
    <request>
      <method value="POST"/>
      <url value="PractitionerRole"/>
    </request>
  </entry>
  <entry>
    <fullUrl value="urn:uuid:b3d44558-6acf-11ec-0000-020000000000"/>
    <resource>
      <Practitioner>
        <meta>
          <profile value="http://nictiz.nl/fhir/StructureDefinition/nl-core-HealthProfessional-Practitioner"/>
        </meta>
        <text>
          <status value="extensions"/>
          <div xmlns="http://www.w3.org/1999/xhtml">
            <div>Id 000001111 (UZI-NR-PERS), Peter van Pulver</div>
            <div>
              <a href="tel:1645645000">1645645000</a> (Tel Werk)</div>
          </div>
        </text>
        <identifier>
          <system value="http://fhir.nl/fhir/NamingSystem/uzi-nr-pers"/>
          <value value="000001111"/>
        </identifier>
        <name>
          <use value="official"/>
          <text value="Peter van Pulver"/>
          <family value="van Pulver">
            <extension url="http://hl7.org/fhir/StructureDefinition/humanname-own-prefix">
              <valueString value="van"/>
            </extension>
            <extension url="http://hl7.org/fhir/StructureDefinition/humanname-own-name">
              <valueString value="Pulver"/>
            </extension>
          </family>
          <given value="Peter">
            <extension url="http://hl7.org/fhir/StructureDefinition/iso21090-EN-qualifier">
              <valueCode value="BR"/>
            </extension>
          </given>
        </name>
        <telecom>
          <system value="phone"/>
          <value value="1645645000"/>
          <use value="work"/>
        </telecom>
      </Practitioner>
    </resource>
    <request>
      <method value="POST"/>
      <url value="Practitioner"/>
    </request>
  </entry>
  <entry>
    <fullUrl value="urn:uuid:7fa869d8-6b44-11ec-0000-020000000000"/>
    <resource>
      <Organization>
        <meta>
          <profile value="http://nictiz.nl/fhir/StructureDefinition/nl-core-HealthcareProvider-Organization"/>
        </meta>
        <text>
          <status value="extensions"/>
          <div xmlns="http://www.w3.org/1999/xhtml">
            <table>
              <caption>Organisatie. Id: 00001111 (URA)</caption>
              <tbody>
                <tr>
                  <th>Naam</th>
                  <td>Huisartsenpraktijk Pulver &amp; Partners</td>
                </tr>
                <tr>
                  <th>Adres</th>
                  <td>Dorpsstraat 1, 1234AA Ons Dorp (Werk)</td>
                </tr>
              </tbody>
            </table>
          </div>
        </text>
        <identifier>
          <system value="http://fhir.nl/fhir/NamingSystem/ura"/>
          <value value="00001111"/>
        </identifier>
        <name value="Huisartsenpraktijk Pulver &amp; Partners"/>
        <address>
          <extension url="http://nictiz.nl/fhir/StructureDefinition/ext-AddressInformation.AddressType">
            <valueCodeableConcept>
              <coding>
                <system value="http://terminology.hl7.org/CodeSystem/v3-AddressUse"/>
                <code value="WP"/>
                <display value="Werkadres"/>
              </coding>
            </valueCodeableConcept>
          </extension>
          <use value="work"/>
          <line value="Dorpsstraat 1">
            <extension url="http://hl7.org/fhir/StructureDefinition/iso21090-ADXP-streetName">
              <valueString value="Dorpsstraat"/>
            </extension>
            <extension url="http://hl7.org/fhir/StructureDefinition/iso21090-ADXP-houseNumber">
              <valueString value="1"/>
            </extension>
          </line>
          <city value="Ons Dorp"/>
          <postalCode value="1234AA"/>
        </address>
      </Organization>
    </resource>
    <request>
      <method value="POST"/>
      <url value="Organization"/>
    </request>
  </entry>
  <entry>
    <fullUrl value="urn:uuid:98d231d8-6b0c-11ec-0000-020000000000"/>
    <resource>
      <Organization>
        <meta>
          <profile value="http://nictiz.nl/fhir/StructureDefinition/nl-core-HealthcareProvider-Organization"/>
        </meta>
        <text>
          <status value="extensions"/>
          <div xmlns="http://www.w3.org/1999/xhtml">
            <table>
              <caption>Organisatie. Id: 01236578 (URA)</caption>
              <tbody>
                <tr>
                  <th>Naam</th>
                  <td>Apotheek De Gulle Gaper</td>
                </tr>
              </tbody>
            </table>
          </div>
        </text>
        <identifier>
          <system value="http://fhir.nl/fhir/NamingSystem/ura"/>
          <value value="01236578"/>
        </identifier>
        <name value="Apotheek De Gulle Gaper"/>
      </Organization>
    </resource>
    <request>
      <method value="POST"/>
      <url value="Organization"/>
    </request>
  </entry>
  <entry>
    <fullUrl value="urn:uuid:36478a4e-bc03-11ed-1316-020000000000"/>
    <resource>
      <Organization>
        <meta>
          <profile value="http://nictiz.nl/fhir/StructureDefinition/nl-core-HealthcareProvider-Organization"/>
        </meta>
        <text>
          <status value="extensions"/>
          <div xmlns="http://www.w3.org/1999/xhtml">
            <table>
              <caption>Organisatie. Id: 00003333 (URA)</caption>
              <tbody>
                <tr>
                  <th>Naam</th>
                  <td>Klinisch chemisch Lab 't Proefje</td>
                </tr>
                <tr>
                  <th>Type</th>
                  <td>
                    <span title="Laboratorium (L1 - organization-type)">Laboratorium</span>
                  </td>
                </tr>
                <tr>
                  <th>Contactgegevens</th>
                  <td>
                    <a href="tel:06-11122233">06-11122233</a> (Tel Werk)<br/>
                    <a href="mailto:tproefje@lab.nl">tproefje@lab.nl</a> (E-mail Werk)<br/>
                  </td>
                </tr>
                <tr>
                  <th>Adres</th>
                  <td>Hoofdstraat 23, 1234AA Zorgstad (Werk)</td>
                </tr>
              </tbody>
            </table>
          </div>
        </text>
        <identifier>
          <system value="http://fhir.nl/fhir/NamingSystem/ura"/>
          <value value="00003333"/>
        </identifier>
        <type>
          <coding>
            <system value="http://nictiz.nl/fhir/NamingSystem/organization-type"/>
            <version value="2022-07-07T00:00:00"/>
            <code value="L1"/>
            <display value="Laboratorium"/>
          </coding>
        </type>
        <name value="Klinisch chemisch Lab 't Proefje"/>
        <telecom>
          <extension url="http://nictiz.nl/fhir/StructureDefinition/ext-Comment">
            <valueString value="Bel met vragen"/>
          </extension>
          <system value="phone"/>
          <value value="06-11122233"/>
          <use value="work"/>
        </telecom>
        <telecom>
          <system value="email"/>
          <value value="tproefje@lab.nl"/>
          <use value="work"/>
        </telecom>
        <address>
          <extension url="http://nictiz.nl/fhir/StructureDefinition/ext-AddressInformation.AddressType">
            <valueCodeableConcept>
              <coding>
                <system value="http://terminology.hl7.org/CodeSystem/v3-AddressUse"/>
                <code value="WP"/>
                <display value="Werkadres"/>
              </coding>
            </valueCodeableConcept>
          </extension>
          <use value="work"/>
          <line value="Hoofdstraat 23">
            <extension url="http://hl7.org/fhir/StructureDefinition/iso21090-ADXP-streetName">
              <valueString value="Hoofdstraat"/>
            </extension>
            <extension url="http://hl7.org/fhir/StructureDefinition/iso21090-ADXP-houseNumber">
              <valueString value="23"/>
            </extension>
          </line>
          <city value="Zorgstad"/>
          <postalCode value="1234AA"/>
        </address>
      </Organization>
    </resource>
    <request>
      <method value="POST"/>
      <url value="Organization"/>
    </request>
  </entry>
  <entry>
    <fullUrl value="urn:uuid:a07ec504-6ac4-11ec-0000-020000000000"/>
    <resource>
      <Medication>
        <meta>
          <profile value="http://nictiz.nl/fhir/StructureDefinition/mp-PharmaceuticalProduct"/>
        </meta>
        <text>
          <status value="extensions"/>
          <div xmlns="http://www.w3.org/1999/xhtml">
            <table>
              <tbody>
                <tr>
                  <th>Code</th>
                  <td>
                    <span title="ACETYLSALICYLZUUR TABLETMSR 100MG (49484 - G-Standaard PRK)">ACETYLSALICYLZUUR TABLETMSR 100MG</span>
                  </td>
                </tr>
              </tbody>
            </table>
          </div>
        </text>
        <code>
          <coding>
            <system value="urn:oid:2.16.840.1.113883.2.4.4.10"/>
            <code value="49484"/>
            <display value="ACETYLSALICYLZUUR TABLETMSR 100MG"/>
            <userSelected value="true"/>
          </coding>
          <coding>
            <system value="urn:oid:2.16.840.1.113883.2.4.4.1"/>
            <code value="103039"/>
            <display value="ACETYLSALICYLZUUR TABLETMSR 100MG"/>
          </coding>
          <text value="ACETYLSALICYLZUUR TABLETMSR 100MG"/>
        </code>
      </Medication>
    </resource>
    <request>
      <method value="POST"/>
      <url value="Medication"/>
    </request>
  </entry>
</Bundle>
