{
  "resourceType": "Bundle",
  "type": "transaction",
  "entry": [ {
    "fullUrl": "${UUID-ST}",
    "resource": {
      "resourceType": "Communication",
      "meta": {
        "profile": [ "http://nictiz.nl/fhir/StructureDefinition/dwv-PatientCorrectionsCommunication" ]
      },
      "identifier": [ {
        "system": "urn:oid:2.16.840.1.113883.2.4.3.11.999.130.1.40",
        "value": "8b5e15b5-289a-49f4-ab01-2db2266de40b"
      } ],
      "status": "completed",
      "category": [ {
        "coding": [ {
          "system": "https://hl7.org/fhir/uv/fhir-patient-correction/CodeSystem/PatientCorrectionCommunicationTypes",
          "code": "medRecCxReq",
          "display": "Correction request by the Patient or RelatedPerson"
        } ]
      } ],
      "subject": {
        "reference": "urn:uuid:c69dbe47-12fc-4203-941e-4554fefe91ff",
        "type": "Patient",
        "display": "Johan XXX_Helleman"
      },
      "topic": {
        "text": "Wilsverklaring intrekken"
      },
      "sent": "${DATE, T, D, -0}T07:35:00Z",
      "recipient": [ {
        "reference": "urn:uuid:38390402-c232-4ff6-9aed-ea4477690722",
        "type": "Organization",
        "display": "Test Medisch Centrum"
      } ],
      "sender": {
        "reference": "urn:uuid:c69dbe47-12fc-4203-941e-4554fefe91ff",
        "type": "Patient",
        "display": "Johan XXX_Helleman"
      },
      "payload": [ {
        "contentString": "In mijn dossier staat een wilsverklaring over niet reanimeren. Deze wil ik terugtrekken."
      } ]
    },
    "request": {
      "method": "POST",
      "url": "Communication"
    }
  }, {
    "fullUrl": "${UUID-ST}",
    "resource": {
      "resourceType": "Communication",
      "meta": {
        "profile": [ "http://nictiz.nl/fhir/StructureDefinition/dwv-PatientCorrectionsCommunication" ]
      },
      "identifier": [ {
        "system": "urn:oid:2.16.840.1.113883.2.4.3.11.999.130.1.40",
        "value": "534d3c60-5ea2-408a-bdbd-e573e9b1169a"
      } ],
      "status": "completed",
      "category": [ {
        "coding": [ {
          "system": "https://hl7.org/fhir/uv/fhir-patient-correction/CodeSystem/PatientCorrectionCommunicationTypes",
          "code": "medRecCxReq",
          "display": "Correction request by the Patient or RelatedPerson"
        } ]
      } ],
      "subject": {
        "reference": "urn:uuid:c69dbe47-12fc-4203-941e-4554fefe91ff",
        "type": "Patient",
        "display": "Johan XXX_Helleman"
      },
      "topic": {
        "text": "Niet eens met diagnose"
      },
      "sent": "${DATE, T, D, -0}T07:35:00Z",
      "recipient": [ {
        "reference": "urn:uuid:38390402-c232-4ff6-9aed-ea4477690722",
        "type": "Organization",
        "display": "Test Medisch Centrum"
      }, {
        "reference": "urn:uuid:11b8c34d-68a8-4501-a1aa-1f314d280052",
        "type": "PractitionerRole",
        "display": "G.Z.M. de Wit, Test Medisch Centrum"
      } ],
      "sender": {
        "reference": "urn:uuid:c69dbe47-12fc-4203-941e-4554fefe91ff",
        "type": "Patient",
        "display": "Johan XXX_Helleman"
      },
      "payload": [ {
        "contentString": "Ik ben het niet eens met de diagnose die jullie hebben gesteld. Ik denk dat het vasovagale syncope is, omdat de kenmerken overeenkomen met mijn klachten. Zie hieronder:                                                  Vasovagale syncope is de meest voorkomende vorm van flauwvallen. Het is een tijdelijk en omkeerbaar bewustzijnsverlies (syncope) hetgeen wordt veroorzaakt door een algehele bloedvatverwijding door stimulatie van de hersenzenuw de nervus vagus waardoor de bloeddruk sterk daalt. Het betreft voornamelijk een plotselinge vagale overactiviteit die een onvoldoende doorbloeding (van de hersenen) ten gevolge heeft. De vasovagale syncope kan worden veroorzaakt door een aantal aandoeningen of factoren die alle leiden tot hetzelfde beeld van flauwvallen. In principe kan iedereen bij voldoende heftige uitlokkende factoren wel een vasovagale syncope krijgen. In geval van vaak terugkerende aanvallen betreft het meestal een blootstelling aan steeds dezelfde specifieke uitlokkende factor. De eerste aanval vindt vaak plaats tussen het tiende en twintigste levensjaar en komt vervolgens soms gegroepeerd terug in de rest van het leven. Kenmerkend voor de vasovagale syncope zijn volgende voortekenen: lichthoofdigheid, misselijkheid, zweten, oorsuizen en problemen met het gezichtsvermogen. Deze symptomen zijn tot enkele seconden voor het bewustzijnsverlies aanwezig, vooral wanneer de persoon staat of rechtop zit. Soms gaat het echter zo snel dat het flauwvallen het eerste is wat de omgeving merkt. Bij een op deze manier flauwgevallen persoon valt het bleke gezicht op, en meestal een zwakke tot zeer zwakke, trage pols. Het kan voorkomen dat er een korte spiertrekking optreedt. Dit leidt soms ten onrechte tot de gedachte dat er epilepsie in het spel kan zijn. Voor een arts die de aanval ziet is het onderscheid echter gemakkelijk te maken. Typerend voor elke syncope is het spontane herstel. Dit gebeurt voornamelijk omdat bij het flauwvallen de persoon in horizontale positie terechtkomt. In deze positie wordt de nodige bloedtoevoer naar de hersenen hersteld en komt de persoon snel weer bij bewustzijn. De nog niet volledig herstelde fysiologische staat van het autonoom zenuwstelsel (dat het bewustzijnsverlies controleert) zorgt ervoor dat het bewustzijnsverlies makkelijk opnieuw optreedt als de persoon vlak na een syncope opnieuw tracht recht te staan of te zitten (de bloedtoevoer naar het hoofd vermindert hierdoor opnieuw) en dat de persoon tot enkele minuten na het bijkomen misselijk, bleek en zweterig is."
      } ]
    },
    "request": {
      "method": "POST",
      "url": "Communication"
    }
  }, {
    "fullUrl": "urn:uuid:c69dbe47-12fc-4203-941e-4554fefe91ff",
    "resource": {
      "resourceType": "Patient",
      "meta": {
        "profile": [ "http://nictiz.nl/fhir/StructureDefinition/nl-core-Patient" ]
      },
      "text": {
        "status": "extensions",
        "div": "<div xmlns=\"http://www.w3.org/1999/xhtml\">\n            <div>Id <i>afgeschermd (ontbrekend gegeven)</i> (BSN), Id 1285290 (urn:oid:2.16.840.1.113883.2.4.3.11.999.130.1.135), Johan XXX_Helleman, Man, 25 juli 1964</div>\n            <div>Knolweg 1000, 9999XA Stitswerd, NLD</div>\n          </div>"
      },
      "identifier": [ {
        "system": "http://fhir.nl/fhir/NamingSystem/bsn",
        "_value": {
          "extension": [ {
            "url": "http://hl7.org/fhir/StructureDefinition/data-absent-reason",
            "valueCode": "masked"
          } ]
        }
      }, {
        "system": "urn:oid:2.16.840.1.113883.2.4.3.11.999.130.1.135",
        "value": "1285290"
      } ],
      "name": [ {
        "use": "official",
        "text": "Johan XXX_Helleman",
        "family": "XXX_Helleman",
        "_family": {
          "extension": [ {
            "url": "http://hl7.org/fhir/StructureDefinition/humanname-own-name",
            "valueString": "XXX_Helleman"
          } ]
        },
        "given": [ "Johan" ],
        "_given": [ {
          "extension": [ {
            "url": "http://hl7.org/fhir/StructureDefinition/iso21090-EN-qualifier",
            "valueCode": "BR"
          } ]
        } ]
      } ],
      "gender": "male",
      "_gender": {
        "extension": [ {
          "url": "http://nictiz.nl/fhir/StructureDefinition/ext-CodeSpecification",
          "valueCodeableConcept": {
            "coding": [ {
              "system": "http://terminology.hl7.org/CodeSystem/v3-AdministrativeGender",
              "code": "M",
              "display": "Man"
            } ]
          }
        } ]
      },
      "birthDate": "1964-07-25",
      "address": [ {
        "line": [ "Knolweg 1000" ],
        "_line": [ {
          "extension": [ {
            "url": "http://hl7.org/fhir/StructureDefinition/iso21090-ADXP-streetName",
            "valueString": "Knolweg"
          }, {
            "url": "http://hl7.org/fhir/StructureDefinition/iso21090-ADXP-houseNumber",
            "valueString": "1000"
          } ]
        } ],
        "city": "Stitswerd",
        "postalCode": "9999XA",
        "country": "NLD",
        "_country": {
          "extension": [ {
            "url": "http://nictiz.nl/fhir/StructureDefinition/ext-CodeSpecification",
            "valueCodeableConcept": {
              "coding": [ {
                "system": "urn:oid:2.16.840.1.113883.2.4.4.16.34",
                "code": "6030",
                "display": "Nederland"
              } ]
            }
          } ]
        }
      } ]
    },
    "request": {
      "method": "POST",
      "url": "Patient"
    }
  }, {
    "fullUrl": "urn:uuid:38390402-c232-4ff6-9aed-ea4477690722",
    "resource": {
      "resourceType": "Organization",
      "meta": {
        "profile": [ "http://nictiz.nl/fhir/StructureDefinition/nl-core-HealthcareProvider-Organization" ]
      },
      "text": {
        "status": "extensions",
        "div": "<div xmlns=\"http://www.w3.org/1999/xhtml\">\n            <table>\n              <caption>Organisatie. Id: 12341234 (URA)</caption>\n              <tbody>\n                <tr>\n                  <th>Naam</th>\n                  <td>Test Medisch Centrum</td>\n                </tr>\n              </tbody>\n            </table>\n          </div>"
      },
      "identifier": [ {
        "system": "http://fhir.nl/fhir/NamingSystem/ura",
        "value": "12341234"
      } ],
      "name": "Test Medisch Centrum"
    },
    "request": {
      "method": "POST",
      "url": "Organization"
    }
  }, {
    "fullUrl": "urn:uuid:a989fb3b-218b-4614-9eb3-d9c56126a9eb",
    "resource": {
      "resourceType": "Practitioner",
      "meta": {
        "profile": [ "http://nictiz.nl/fhir/StructureDefinition/nl-core-HealthProfessional-Practitioner" ]
      },
      "text": {
        "status": "extensions",
        "div": "<div xmlns=\"http://www.w3.org/1999/xhtml\">\n            <div>Id 000001119 (UZI-NR-PERS), G.Z.M. de Wit</div>\n          </div>"
      },
      "identifier": [ {
        "system": "http://fhir.nl/fhir/NamingSystem/uzi-nr-pers",
        "value": "000001119"
      } ],
      "name": [ {
        "use": "official",
        "text": "G.Z.M. de Wit",
        "family": "de Wit",
        "_family": {
          "extension": [ {
            "url": "http://hl7.org/fhir/StructureDefinition/humanname-own-prefix",
            "valueString": "de"
          }, {
            "url": "http://hl7.org/fhir/StructureDefinition/humanname-own-name",
            "valueString": "Wit"
          } ]
        },
        "given": [ "G.", "Z.", "M." ],
        "_given": [ {
          "extension": [ {
            "url": "http://hl7.org/fhir/StructureDefinition/iso21090-EN-qualifier",
            "valueCode": "IN"
          } ]
        }, {
          "extension": [ {
            "url": "http://hl7.org/fhir/StructureDefinition/iso21090-EN-qualifier",
            "valueCode": "IN"
          } ]
        }, {
          "extension": [ {
            "url": "http://hl7.org/fhir/StructureDefinition/iso21090-EN-qualifier",
            "valueCode": "IN"
          } ]
        } ]
      } ]
    },
    "request": {
      "method": "POST",
      "url": "Practitioner"
    }
  }, {
    "fullUrl": "urn:uuid:11b8c34d-68a8-4501-a1aa-1f314d280052",
    "resource": {
      "resourceType": "PractitionerRole",
      "meta": {
        "profile": [ "http://nictiz.nl/fhir/StructureDefinition/nl-core-HealthProfessional-PractitionerRole" ]
      },
      "text": {
        "status": "extensions",
        "div": "<div xmlns=\"http://www.w3.org/1999/xhtml\">\n            <table>\n              <caption>Zorgverlenerrol. Id: 12341119 (urn:oid:2.16.840.1.113883.2.4.3.11.999.130.1.66)</caption>\n              <tbody>\n                <tr>\n                  <th>Zorgverlener</th>\n                  <td>\n                    <div>G.Z.M. de Wit</div>\n                    <div>Test Medisch Centrum</div>\n                  </td>\n                </tr>\n              </tbody>\n            </table>\n          </div>"
      },
      "identifier": [ {
        "system": "urn:oid:2.16.840.1.113883.2.4.3.11.999.130.1.66",
        "value": "12341119"
      } ],
      "practitioner": {
        "reference": "urn:uuid:a989fb3b-218b-4614-9eb3-d9c56126a9eb",
        "type": "Practitioner",
        "display": "G.Z.M. de Wit"
      },
      "organization": {
        "reference": "urn:uuid:38390402-c232-4ff6-9aed-ea4477690722",
        "type": "Organization",
        "display": "Test Medisch Centrum"
      }
    },
    "request": {
      "method": "POST",
      "url": "PractitionerRole"
    }
  } ]
}