<Bundle xmlns="http://hl7.org/fhir">
  <id value="KWAL-3-4KCNHG"/>
  <type value="transaction"/>
  <entry>
    <fullUrl value="urn:uuid:3d112594-3e7d-11ef-1823-020000000000"/>
    <resource>
      <Observation>
        <meta>
          <profile value="http://nictiz.nl/fhir/StructureDefinition/nl-core-LaboratoryTestResult"/>
        </meta>
        <text>
          <status value="extensions"/>
          <div xmlns="http://www.w3.org/1999/xhtml">
            <table>
              <caption>Observatie/bepaling. Subject: Patient, H Smit. Categorie: <span title="Laboratory (laboratory - http://terminology.hl7.org/CodeSystem/observation-category)">Laboratory</span>, Status: definitief<span style="display: block;">Uitvoerende: Healthcare provider (organization), Klinisch chemisch Lab 't Proefje</span>
              </caption>
              <tbody>
                <tr>
                  <th>Bepalingdatum/tijd</th>
                  <td colspan="3">${DATE, T, D, -30}</td>
                </tr>
                <tr>
                  <th>Specimen</th>
                  <td colspan="3">monster</td>
                </tr>
                <tr>
                  <th>Code</th>
                  <th>Waarde</th>
                  <th>Interpretatie</th>
                  <th>Referentiewaarden</th>
                </tr>
                <tr>
                  <td>
                    <span title="eGFR volgens CKD-EPI formule (3583 - nhg-tabel-45-diagnostische-bepalingen)">eGFR volgens CKD-EPI formule</span>
                  </td>
                  <td>25 mL/min/{1.73_m2}</td>
                  <td>Waarde is te laag. Stadium 4 nierfalen, ernstige nierfunctiestoornis.</td>
                  <td>
                    <div>90 mL/min/{1.73_m2} - </div>
                  </td>
                </tr>
              </tbody>
            </table>
          </div>
        </text>
        <extension url="http://nictiz.nl/fhir/StructureDefinition/ext-CopyIndicator">
          <valueBoolean value="true"/>
        </extension>
        <extension url="http://nictiz.nl/fhir/StructureDefinition/ext-EdifactReferenceNumber">
          <valueString value="888222"/>
        </extension>
        <status value="final"/>
        <category>
          <coding>
            <system value="http://terminology.hl7.org/CodeSystem/observation-category"/>
            <code value="laboratory"/>
            <display value="Laboratory"/>
          </coding>
        </category>
        <code>
          <coding>
            <system value="https://referentiemodel.nhg.org/tabellen/nhg-tabel-45-diagnostische-bepalingen"/>
            <code value="3583"/>
            <display value="eGFR volgens CKD-EPI formule"/>
          </coding>
        </code>
        <subject>
          <reference value="urn:uuid:3d1124f4-3e7d-11ef-1823-020000000000"/>
          <type value="Patient"/>
          <display value="Patient, H Smit"/>
        </subject>
        <effectiveDateTime value="${DATE, T, D, -30}"/>
        <performer>
          <reference value="urn:uuid:3d112512-3e7d-11ef-1823-020000000000"/>
          <type value="Organization"/>
          <display value="Healthcare provider (organization), Klinisch chemisch Lab 't Proefje"/>
        </performer>
        <valueQuantity>
          <value value="25"/>
          <unit value="mL/min/{1.73_m2}"/>
          <system value="http://unitsofmeasure.org"/>
          <code value="mL/min/{1.73_m2}"/>
        </valueQuantity>
        <interpretation>
          <text value="Waarde is te laag. Stadium 4 nierfalen, ernstige nierfunctiestoornis."/>
        </interpretation>
        <specimen>
          <reference value="urn:uuid:3d1125d0-3e7d-11ef-1823-020000000000"/>
          <type value="Specimen"/>
          <display value="monster"/>
        </specimen>
        <referenceRange>
          <low>
            <value value="90"/>
            <unit value="mL/min/{1.73_m2}"/>
            <system value="http://unitsofmeasure.org"/>
            <code value="mL/min/{1.73_m2}"/>
          </low>
        </referenceRange>
      </Observation>
    </resource>
    <request>
      <method value="POST"/>
      <url value="Observation"/>
    </request>
  </entry>
  <entry>
    <fullUrl value="urn:uuid:3d1125ee-3e7d-11ef-1823-020000000000"/>
    <resource>
      <Device>
        <meta>
          <profile value="http://nictiz.nl/fhir/StructureDefinition/nl-core-LaboratoryTestResult.SpecimenSource"/>
        </meta>
        <text>
          <status value="extensions"/>
          <div xmlns="http://www.w3.org/1999/xhtml">
            <table>
              <caption>Apparaat/Systeem. Patiënt: Patient, H Smit. </caption>
              <tbody>
                <tr>
                  <th>Type</th>
                  <td/>
                </tr>
              </tbody>
            </table>
          </div>
        </text>
        <deviceName>
          <name value="Verzamelbeker"/>
          <type value="other"/>
        </deviceName>
        <patient>
          <reference value="urn:uuid:3d1124f4-3e7d-11ef-1823-020000000000"/>
          <type value="Patient"/>
          <display value="Patient, H Smit"/>
        </patient>
      </Device>
    </resource>
    <request>
      <method value="POST"/>
      <url value="Device"/>
    </request>
  </entry>
  <entry>
    <fullUrl value="urn:uuid:3d1125d0-3e7d-11ef-1823-020000000000"/>
    <resource>
      <Specimen>
        <meta>
          <profile value="http://nictiz.nl/fhir/StructureDefinition/nl-core-LaboratoryTestResult.Specimen"/>
        </meta>
        <text>
          <status value="extensions"/>
          <div xmlns="http://www.w3.org/1999/xhtml">
            <table>
              <caption>Specimen. Subject: bron_monster. Id: 15 (urn:oid:2.16.840.1.113883.2.4.3.11.999.25.4267.2)</caption>
              <tfoot>
                <tr>
                  <td colspan="2">Urine ingeleverd door patiënt.</td>
                </tr>
              </tfoot>
              <tbody>
                <tr>
                  <th>Type</th>
                  <td>
                    <span title="Urine (122575003 - SNOMED CT)">Urine</span>
                  </td>
                </tr>
                <tr>
                  <th>Received</th>
                  <td>${DATE, T, D, -31}</td>
                </tr>
              </tbody>
            </table>
          </div>
        </text>
        <identifier>
          <system value="urn:oid:2.16.840.1.113883.2.4.3.11.999.25.4267.2"/>
          <value value="15"/>
        </identifier>
        <type>
          <coding>
            <system value="http://snomed.info/sct"/>
            <code value="122575003"/>
            <display value="Urine"/>
          </coding>
        </type>
        <subject>
          <reference value="urn:uuid:3d1125ee-3e7d-11ef-1823-020000000000"/>
          <type value="Device"/>
          <display value="bron_monster"/>
        </subject>
        <receivedTime value="${DATE, T, D, -31}"/>
        <note>
          <text value="Urine ingeleverd door patiënt."/>
        </note>
      </Specimen>
    </resource>
    <request>
      <method value="POST"/>
      <url value="Specimen"/>
    </request>
  </entry>
  <entry>
    <fullUrl value="urn:uuid:3d112512-3e7d-11ef-1823-020000000000"/>
    <resource>
      <Organization>
        <meta>
          <profile value="http://nictiz.nl/fhir/StructureDefinition/nl-core-HealthcareProvider-Organization"/>
        </meta>
        <text>
          <status value="extensions"/>
          <div xmlns="http://www.w3.org/1999/xhtml">
            <table>
              <caption>Organisatie. Id: 00003333 (URA)</caption>
              <tbody>
                <tr>
                  <th>Naam</th>
                  <td>Klinisch chemisch Lab 't Proefje</td>
                </tr>
                <tr>
                  <th>Type</th>
                  <td>
                    <span title="Laboratorium (L1 - organization-type)">Laboratorium</span>
                  </td>
                </tr>
                <tr>
                  <th>Contactgegevens</th>
                  <td>
                    <a href="tel:06-11122233">06-11122233</a> (Tel Werk)<br/>
                    <a href="mailto:tproefje@lab.nl">tproefje@lab.nl</a> (E-mail Werk)<br/>
                  </td>
                </tr>
                <tr>
                  <th>Adres</th>
                  <td>Hoofdstraat 23, 1234 AA Zorgstad (Werk)</td>
                </tr>
              </tbody>
            </table>
          </div>
        </text>
        <identifier>
          <system value="http://fhir.nl/fhir/NamingSystem/ura"/>
          <value value="00003333"/>
        </identifier>
        <type>
          <coding>
            <system value="http://nictiz.nl/fhir/NamingSystem/organization-type"/>
            <version value="2022-09-10T00:00:00"/>
            <code value="L1"/>
            <display value="Laboratorium"/>
          </coding>
        </type>
        <name value="Klinisch chemisch Lab 't Proefje"/>
        <telecom>
          <extension url="http://nictiz.nl/fhir/StructureDefinition/ext-Comment">
            <valueString value="Bel met vragen."/>
          </extension>
          <system value="phone"/>
          <value value="06-11122233"/>
          <use value="work"/>
        </telecom>
        <telecom>
          <system value="email"/>
          <value value="tproefje@lab.nl"/>
          <use value="work"/>
        </telecom>
        <address>
          <extension url="http://nictiz.nl/fhir/StructureDefinition/ext-AddressInformation.AddressType">
            <valueCodeableConcept>
              <coding>
                <system value="http://terminology.hl7.org/CodeSystem/v3-AddressUse"/>
                <code value="WP"/>
                <display value="Werkadres"/>
              </coding>
            </valueCodeableConcept>
          </extension>
          <use value="work"/>
          <line value="Hoofdstraat 23">
            <extension url="http://hl7.org/fhir/StructureDefinition/iso21090-ADXP-streetName">
              <valueString value="Hoofdstraat"/>
            </extension>
            <extension url="http://hl7.org/fhir/StructureDefinition/iso21090-ADXP-houseNumber">
              <valueString value="23"/>
            </extension>
          </line>
          <city value="Zorgstad"/>
          <postalCode value="1234 AA"/>
        </address>
      </Organization>
    </resource>
    <request>
      <method value="POST"/>
      <url value="Organization"/>
    </request>
  </entry>
  <entry>
    <fullUrl value="urn:uuid:3d1124f4-3e7d-11ef-1823-020000000000"/>
    <resource>
      <Patient>
        <meta>
          <profile value="http://nictiz.nl/fhir/StructureDefinition/nl-core-Patient"/>
        </meta>
        <text>
          <status value="extensions"/>
          <div xmlns="http://www.w3.org/1999/xhtml">
            <div>Id 999910966 (BSN), H Smit, Man, 24 augustus 1954</div>
          </div>
        </text>
        <identifier>
          <system value="http://fhir.nl/fhir/NamingSystem/bsn"/>
          <value value="999910966"/>
        </identifier>
        <name>
          <use value="official"/>
          <text value="H Smit"/>
          <family value="Smit">
            <extension url="http://hl7.org/fhir/StructureDefinition/humanname-own-name">
              <valueString value="Smit"/>
            </extension>
          </family>
          <given value="H">
            <extension url="http://hl7.org/fhir/StructureDefinition/iso21090-EN-qualifier">
              <valueCode value="BR"/>
            </extension>
          </given>
        </name>
        <gender value="male">
          <extension url="http://nictiz.nl/fhir/StructureDefinition/ext-CodeSpecification">
            <valueCodeableConcept>
              <coding>
                <system value="http://terminology.hl7.org/CodeSystem/v3-AdministrativeGender"/>
                <code value="M"/>
                <display value="Man"/>
              </coding>
            </valueCodeableConcept>
          </extension>
        </gender>
        <birthDate value="1954-08-24"/>
      </Patient>
    </resource>
    <request>
      <method value="POST"/>
      <url value="Patient"/>
    </request>
  </entry>
</Bundle>
