<Bundle xmlns="http://hl7.org/fhir">
  <id value="KWAL-2-2BMMBNHG"/>
  <type value="transaction"/>
  <entry>
    <fullUrl value="urn:uuid:92f3149a-4981-11ef-1935-020000000000"/>
    <resource>
      <Observation>
        <meta>
          <profile value="http://nictiz.nl/fhir/StructureDefinition/nl-core-LaboratoryTestResult"/>
        </meta>
        <text>
          <status value="extensions"/>
          <div xmlns="http://www.w3.org/1999/xhtml">
            <table>
              <caption>Observatie/bepaling. Subject: Patient, Patricia XXX_Sacht. Id: 92225 (urn:oid:2.16.840.1.113883.2.4.3.11.999.25.4298.3), Categorie: <span title="Laboratory (laboratory - http://terminology.hl7.org/CodeSystem/observation-category)">Laboratory</span>, Status: gecorrigeerd<span style="display: block;">Uitvoerende: Healthcare provider (organization), Microbiologisch Lab Flagel</span>
              </caption>
              <tbody>
                <tr>
                  <th>Bepalingdatum/tijd</th>
                  <td colspan="2">${DATE, T, D, -2}</td>
                </tr>
                <tr>
                  <th>Specimen</th>
                  <td colspan="2">monster</td>
                </tr>
                <tr>
                  <th>Code</th>
                  <th>Waarde</th>
                  <th>Interpretatie</th>
                </tr>
                <tr>
                  <td>
                    <span title="SARS-CoV-2 RNA (COVID-19) keel (PCR) kz (4029 - nhg-tabel-45-diagnostische-bepalingen)">SARS-CoV-2 RNA (COVID-19) keel (PCR) kz</span>
                  </td>
                  <td>
                    <span title="negatief (31 - nhg-tabel-45-diagnostische-bepalingen#resultaten)">negatief</span>
                  </td>
                  <td>Gecorrigeerd ivm kapot systeem</td>
                </tr>
              </tbody>
            </table>
          </div>
        </text>
        <extension url="http://nictiz.nl/fhir/StructureDefinition/ext-CopyIndicator">
          <valueBoolean value="true"/>
        </extension>
        <extension url="http://nictiz.nl/fhir/StructureDefinition/ext-EdifactReferenceNumber">
          <valueString value="222444"/>
        </extension>
        <identifier>
          <system value="urn:oid:2.16.840.1.113883.2.4.3.11.999.25.4298.3"/>
          <value value="92225"/>
        </identifier>
        <status value="corrected"/>
        <category>
          <coding>
            <system value="http://terminology.hl7.org/CodeSystem/observation-category"/>
            <code value="laboratory"/>
            <display value="Laboratory"/>
          </coding>
        </category>
        <code>
          <coding>
            <system value="https://referentiemodel.nhg.org/tabellen/nhg-tabel-45-diagnostische-bepalingen"/>
            <code value="4029"/>
            <display value="SARS-CoV-2 RNA (COVID-19) keel (PCR) kz"/>
          </coding>
        </code>
        <subject>
          <reference value="urn:uuid:92f31440-4981-11ef-1935-020000000000"/>
          <type value="Patient"/>
          <display value="Patient, Patricia XXX_Sacht"/>
        </subject>
        <effectiveDateTime value="${DATE, T, D, -2}"/>
        <performer>
          <reference value="urn:uuid:92f3145e-4981-11ef-1935-020000000000"/>
          <type value="Organization"/>
          <display value="Healthcare provider (organization), Microbiologisch Lab Flagel"/>
        </performer>
        <valueCodeableConcept>
          <coding>
            <system value="https://referentiemodel.nhg.org/tabellen/nhg-tabel-45-diagnostische-bepalingen#resultaten"/>
            <code value="31"/>
            <display value="negatief"/>
          </coding>
        </valueCodeableConcept>
        <interpretation>
          <text value="Gecorrigeerd ivm kapot systeem"/>
        </interpretation>
        <specimen>
          <reference value="urn:uuid:92f314d6-4981-11ef-1935-020000000000"/>
          <type value="Specimen"/>
          <display value="monster"/>
        </specimen>
      </Observation>
    </resource>
    <request>
      <method value="POST"/>
      <url value="Observation"/>
    </request>
  </entry>
  <entry>
    <fullUrl value="urn:uuid:92f314d6-4981-11ef-1935-020000000000"/>
    <resource>
      <Specimen>
        <meta>
          <profile value="http://nictiz.nl/fhir/StructureDefinition/nl-core-LaboratoryTestResult.Specimen"/>
        </meta>
        <text>
          <status value="extensions"/>
          <div xmlns="http://www.w3.org/1999/xhtml">
            <table>
              <caption>Specimen. Subject: Patient, Patricia XXX_Sacht. Id: 13344 (urn:oid:2.16.840.1.113883.2.4.3.11.999.25.4267.3)</caption>
              <tbody>
                <tr>
                  <th>Type</th>
                  <td>
                    <span title="specimen uit keelholte (119389009 - SNOMED CT)">specimen uit keelholte</span>
                  </td>
                </tr>
                <tr>
                  <th>Inzameling</th>
                  <td>${DATE, T, D, -4}<div>
                      <span title="keelholte (54066008 - SNOMED CT)">keelholte</span>
                    </div>
                  </td>
                </tr>
              </tbody>
            </table>
          </div>
        </text>
        <identifier>
          <system value="urn:oid:2.16.840.1.113883.2.4.3.11.999.25.4267.3"/>
          <value value="13344"/>
        </identifier>
        <type>
          <coding>
            <system value="http://snomed.info/sct"/>
            <code value="119389009"/>
            <display value="specimen uit keelholte"/>
          </coding>
        </type>
        <subject>
          <reference value="urn:uuid:92f31440-4981-11ef-1935-020000000000"/>
          <type value="Patient"/>
          <display value="Patient, Patricia XXX_Sacht"/>
        </subject>
        <collection>
          <collectedDateTime value="${DATE, T, D, -4}"/>
          <bodySite>
            <coding>
              <system value="http://snomed.info/sct"/>
              <code value="54066008"/>
              <display value="keelholte"/>
            </coding>
          </bodySite>
        </collection>
      </Specimen>
    </resource>
    <request>
      <method value="POST"/>
      <url value="Specimen"/>
    </request>
  </entry>
  <entry>
    <fullUrl value="urn:uuid:92f3145e-4981-11ef-1935-020000000000"/>
    <resource>
      <Organization>
        <meta>
          <profile value="http://nictiz.nl/fhir/StructureDefinition/nl-core-HealthcareProvider-Organization"/>
        </meta>
        <text>
          <status value="extensions"/>
          <div xmlns="http://www.w3.org/1999/xhtml">
            <table>
              <caption>Organisatie. Id: 00003334 (URA)</caption>
              <tbody>
                <tr>
                  <th>Naam</th>
                  <td>Microbiologisch Lab Flagel</td>
                </tr>
                <tr>
                  <th>Type</th>
                  <td>
                    <span title="Laboratorium (L1 - organization-type)">Laboratorium</span>
                  </td>
                </tr>
                <tr>
                  <th>Contactgegevens</th>
                  <td>
                    <a href="tel:06-11122244">06-11122244</a> (Tel)<br/>
                    <a href="mailto:tproefje@lab.nl">tproefje@lab.nl</a> (E-mail Werk)<br/>
                  </td>
                </tr>
                <tr>
                  <th>Adres</th>
                  <td>Hoofdstraat 23, 1234 AA Zorgstad (Werk)</td>
                </tr>
              </tbody>
            </table>
          </div>
        </text>
        <identifier>
          <system value="http://fhir.nl/fhir/NamingSystem/ura"/>
          <value value="00003334"/>
        </identifier>
        <type>
          <coding>
            <system value="http://nictiz.nl/fhir/NamingSystem/organization-type"/>
            <version value="2022-09-10T00:00:00"/>
            <code value="L1"/>
            <display value="Laboratorium"/>
          </coding>
        </type>
        <name value="Microbiologisch Lab Flagel"/>
        <telecom>
          <system value="phone"/>
          <value value="06-11122244"/>
        </telecom>
        <telecom>
          <system value="email"/>
          <value value="tproefje@lab.nl"/>
          <use value="work"/>
        </telecom>
        <address>
          <extension url="http://nictiz.nl/fhir/StructureDefinition/ext-AddressInformation.AddressType">
            <valueCodeableConcept>
              <coding>
                <system value="http://terminology.hl7.org/CodeSystem/v3-AddressUse"/>
                <code value="WP"/>
                <display value="Werkadres"/>
              </coding>
            </valueCodeableConcept>
          </extension>
          <use value="work"/>
          <line value="Hoofdstraat 23">
            <extension url="http://hl7.org/fhir/StructureDefinition/iso21090-ADXP-streetName">
              <valueString value="Hoofdstraat"/>
            </extension>
            <extension url="http://hl7.org/fhir/StructureDefinition/iso21090-ADXP-houseNumber">
              <valueString value="23"/>
            </extension>
          </line>
          <city value="Zorgstad"/>
          <postalCode value="1234 AA"/>
        </address>
      </Organization>
    </resource>
    <request>
      <method value="POST"/>
      <url value="Organization"/>
    </request>
  </entry>
  <entry>
    <fullUrl value="urn:uuid:92f31440-4981-11ef-1935-020000000000"/>
    <resource>
      <Patient>
        <meta>
          <profile value="http://nictiz.nl/fhir/StructureDefinition/nl-core-Patient"/>
        </meta>
        <text>
          <status value="extensions"/>
          <div xmlns="http://www.w3.org/1999/xhtml">
            <div>Id 999901011 (BSN), Patricia XXX_Sacht, Vrouw, 13 november 2000</div>
          </div>
        </text>
        <identifier>
          <system value="http://fhir.nl/fhir/NamingSystem/bsn"/>
          <value value="999901011"/>
        </identifier>
        <name>
          <use value="official"/>
          <text value="Patricia XXX_Sacht"/>
          <family value="XXX_Sacht">
            <extension url="http://hl7.org/fhir/StructureDefinition/humanname-own-name">
              <valueString value="XXX_Sacht"/>
            </extension>
          </family>
          <given value="Patricia">
            <extension url="http://hl7.org/fhir/StructureDefinition/iso21090-EN-qualifier">
              <valueCode value="BR"/>
            </extension>
          </given>
        </name>
        <gender value="female">
          <extension url="http://nictiz.nl/fhir/StructureDefinition/ext-CodeSpecification">
            <valueCodeableConcept>
              <coding>
                <system value="http://terminology.hl7.org/CodeSystem/v3-AdministrativeGender"/>
                <code value="F"/>
                <display value="Vrouw"/>
              </coding>
            </valueCodeableConcept>
          </extension>
        </gender>
        <birthDate value="2000-11-13"/>
      </Patient>
    </resource>
    <request>
      <method value="POST"/>
      <url value="Patient"/>
    </request>
  </entry>
</Bundle>
