<Bundle xmlns="http://hl7.org/fhir">
  <id value="TEST-1-2MMBNHG"/>
  <type value="transaction"/>
  <entry>
    <fullUrl value="urn:uuid:9308e112-4981-11ef-1571-020000000000"/>
    <resource>
      <Observation>
        <meta>
          <profile value="http://nictiz.nl/fhir/StructureDefinition/nl-core-LaboratoryTestResult"/>
        </meta>
        <text>
          <status value="extensions"/>
          <div xmlns="http://www.w3.org/1999/xhtml">
            <table>
              <caption>Observatie/bepaling. Subject: Patient, Elise Erelies. Id: 77889 (urn:oid:2.16.840.1.113883.2.4.3.11.999.25.4296.3), Categorie: <span title="Laboratory (laboratory - http://terminology.hl7.org/CodeSystem/observation-category)">Laboratory</span>, Status: definitief<span style="display: block;">Uitvoerende: Healthcare provider (organization), Microbiologisch Lab Flagel</span>
              </caption>
              <tbody>
                <tr>
                  <th>Bepalingdatum/tijd</th>
                  <td colspan="2">${DATE, T, D, -5}</td>
                </tr>
                <tr>
                  <th>Methode</th>
                  <td colspan="2">
                    <span title="Microbiological method (qualifier value) (258048005 - SNOMED CT)">Microbiological method (qualifier value)</span>
                  </td>
                </tr>
                <tr>
                  <th>Specimen</th>
                  <td colspan="2">monster</td>
                </tr>
                <tr>
                  <th>Code</th>
                  <th>Waarde</th>
                  <th>Interpretatie</th>
                </tr>
                <tr>
                  <td>
                    <span title="adenovirus Ag. feces (2159 - nhg-tabel-45-diagnostische-bepalingen)">adenovirus Ag. feces</span>
                  </td>
                  <td>
                    <span title="niet aangetoond (260415000 - SNOMED CT)">niet aangetoond</span>
                  </td>
                  <td>Adenovirus niet aanwezig</td>
                </tr>
              </tbody>
            </table>
          </div>
        </text>
        <identifier>
          <system value="urn:oid:2.16.840.1.113883.2.4.3.11.999.25.4296.3"/>
          <value value="77889"/>
        </identifier>
        <status value="final"/>
        <category>
          <coding>
            <system value="http://terminology.hl7.org/CodeSystem/observation-category"/>
            <code value="laboratory"/>
            <display value="Laboratory"/>
          </coding>
        </category>
        <code>
          <coding>
            <system value="https://referentiemodel.nhg.org/tabellen/nhg-tabel-45-diagnostische-bepalingen"/>
            <code value="2159"/>
            <display value="adenovirus Ag. feces"/>
          </coding>
        </code>
        <subject>
          <reference value="urn:uuid:9308e0b8-4981-11ef-1571-020000000000"/>
          <type value="Patient"/>
          <display value="Patient, Elise Erelies"/>
        </subject>
        <effectiveDateTime value="${DATE, T, D, -5}"/>
        <performer>
          <reference value="urn:uuid:9308e0d6-4981-11ef-1571-020000000000"/>
          <type value="Organization"/>
          <display value="Healthcare provider (organization), Microbiologisch Lab Flagel"/>
        </performer>
        <valueCodeableConcept>
          <coding>
            <system value="http://snomed.info/sct"/>
            <code value="260415000"/>
            <display value="niet aangetoond"/>
          </coding>
        </valueCodeableConcept>
        <interpretation>
          <text value="Adenovirus niet aanwezig"/>
        </interpretation>
        <method>
          <coding>
            <system value="http://snomed.info/sct"/>
            <code value="258048005"/>
            <display value="Microbiological method (qualifier value)"/>
          </coding>
        </method>
        <specimen>
          <reference value="urn:uuid:9308e14e-4981-11ef-1571-020000000000"/>
          <type value="Specimen"/>
          <display value="monster"/>
        </specimen>
      </Observation>
    </resource>
    <request>
      <method value="POST"/>
      <url value="Observation"/>
    </request>
  </entry>
  <entry>
    <fullUrl value="urn:uuid:9308e14e-4981-11ef-1571-020000000000"/>
    <resource>
      <Specimen>
        <meta>
          <profile value="http://nictiz.nl/fhir/StructureDefinition/nl-core-LaboratoryTestResult.Specimen"/>
        </meta>
        <text>
          <status value="extensions"/>
          <div xmlns="http://www.w3.org/1999/xhtml">
            <table>
              <caption>Specimen. Subject: Patient, Elise Erelies. Id: 110068 (urn:oid:2.16.840.1.113883.2.4.3.11.999.25.4267.3)</caption>
              <tbody>
                <tr>
                  <th>Type</th>
                  <td>
                    <span title="Feces (substance) (39477002 - SNOMED CT)">Feces (substance)</span>
                  </td>
                </tr>
                <tr>
                  <th>Inzameling</th>
                  <td>${DATE, T, D, -5}<div>Methode: 225105004 (SNOMED CT)</div>
                  </td>
                </tr>
                <tr>
                  <th>Container</th>
                  <td>
                    <div>Type: <span title="Monsterpotje (434746001 - SNOMED CT)">Monsterpotje</span>
                    </div>
                  </td>
                </tr>
              </tbody>
            </table>
          </div>
        </text>
        <identifier>
          <system value="urn:oid:2.16.840.1.113883.2.4.3.11.999.25.4267.3"/>
          <value value="110068"/>
        </identifier>
        <type>
          <coding>
            <system value="http://snomed.info/sct"/>
            <version value="2.16.840.1.113883.6.96"/>
            <code value="39477002"/>
            <display value="Feces (substance)"/>
          </coding>
        </type>
        <subject>
          <reference value="urn:uuid:9308e0b8-4981-11ef-1571-020000000000"/>
          <type value="Patient"/>
          <display value="Patient, Elise Erelies"/>
        </subject>
        <collection>
          <collectedDateTime value="${DATE, T, D, -5}"/>
          <method>
            <coding>
              <system value="http://snomed.info/sct"/>
              <code value="225105004"/>
            </coding>
          </method>
        </collection>
        <container>
          <extension url="http://hl7.org/fhir/StructureDefinition/specimen-sequenceNumber">
            <valueInteger value="5"/>
          </extension>
          <type>
            <coding>
              <system value="http://snomed.info/sct"/>
              <version value="2.16.840.1.113883.6.96"/>
              <code value="434746001"/>
              <display value="Monsterpotje"/>
            </coding>
          </type>
        </container>
      </Specimen>
    </resource>
    <request>
      <method value="POST"/>
      <url value="Specimen"/>
    </request>
  </entry>
  <entry>
    <fullUrl value="urn:uuid:9308e0d6-4981-11ef-1571-020000000000"/>
    <resource>
      <Organization>
        <meta>
          <profile value="http://nictiz.nl/fhir/StructureDefinition/nl-core-HealthcareProvider-Organization"/>
        </meta>
        <text>
          <status value="extensions"/>
          <div xmlns="http://www.w3.org/1999/xhtml">
            <table>
              <caption>Organisatie. Id: 00003334 (URA)</caption>
              <tbody>
                <tr>
                  <th>Naam</th>
                  <td>Microbiologisch Lab Flagel</td>
                </tr>
                <tr>
                  <th>Type</th>
                  <td>
                    <span title="Laboratorium (L1 - organization-type)">Laboratorium</span>
                  </td>
                </tr>
                <tr>
                  <th>Contactgegevens</th>
                  <td>
                    <a href="tel:06-11122244">06-11122244</a> (Tel Werk)</td>
                </tr>
              </tbody>
            </table>
          </div>
        </text>
        <identifier>
          <system value="http://fhir.nl/fhir/NamingSystem/ura"/>
          <value value="00003334"/>
        </identifier>
        <type>
          <coding>
            <system value="http://nictiz.nl/fhir/NamingSystem/organization-type"/>
            <version value="2022-09-10T00:00:00"/>
            <code value="L1"/>
            <display value="Laboratorium"/>
          </coding>
        </type>
        <name value="Microbiologisch Lab Flagel"/>
        <telecom>
          <extension url="http://nictiz.nl/fhir/StructureDefinition/ext-Comment">
            <valueString value="Bel met vragen"/>
          </extension>
          <system value="phone">
            <extension url="http://nictiz.nl/fhir/StructureDefinition/ext-CodeSpecification">
              <valueCodeableConcept>
                <coding>
                  <system value="http://terminology.hl7.org/CodeSystem/v3-AddressUse"/>
                  <code value="MC"/>
                  <display value="Mobiel telefoonnummer"/>
                </coding>
              </valueCodeableConcept>
            </extension>
          </system>
          <value value="06-11122244"/>
          <use value="work"/>
        </telecom>
      </Organization>
    </resource>
    <request>
      <method value="POST"/>
      <url value="Organization"/>
    </request>
  </entry>
  <entry>
    <fullUrl value="urn:uuid:9308e0b8-4981-11ef-1571-020000000000"/>
    <resource>
      <Patient>
        <meta>
          <profile value="http://nictiz.nl/fhir/StructureDefinition/nl-core-Patient"/>
        </meta>
        <text>
          <status value="extensions"/>
          <div xmlns="http://www.w3.org/1999/xhtml">
            <div>Id 999999114 (BSN), Elise Erelies, Vrouw, 1 november 1950</div>
          </div>
        </text>
        <identifier>
          <system value="http://fhir.nl/fhir/NamingSystem/bsn"/>
          <value value="999999114"/>
        </identifier>
        <name>
          <use value="official"/>
          <text value="Elise Erelies"/>
          <family value="Erelies">
            <extension url="http://hl7.org/fhir/StructureDefinition/humanname-own-name">
              <valueString value="Erelies"/>
            </extension>
          </family>
          <given value="Elise">
            <extension url="http://hl7.org/fhir/StructureDefinition/iso21090-EN-qualifier">
              <valueCode value="BR"/>
            </extension>
          </given>
        </name>
        <gender value="female">
          <extension url="http://nictiz.nl/fhir/StructureDefinition/ext-CodeSpecification">
            <valueCodeableConcept>
              <coding>
                <system value="http://terminology.hl7.org/CodeSystem/v3-AdministrativeGender"/>
                <code value="F"/>
                <display value="Vrouw"/>
              </coding>
            </valueCodeableConcept>
          </extension>
        </gender>
        <birthDate value="1950-11-01"/>
      </Patient>
    </resource>
    <request>
      <method value="POST"/>
      <url value="Patient"/>
    </request>
  </entry>
</Bundle>
