<Bundle xmlns="http://hl7.org/fhir">
  <id value="TEST-2-1MMBLOINC"/>
  <type value="transaction"/>
  <entry>
    <fullUrl value="urn:uuid:930e0d90-4981-11ef-1134-020000000000"/>
    <resource>
      <Observation>
        <meta>
          <profile value="http://nictiz.nl/fhir/StructureDefinition/nl-core-LaboratoryTestResult"/>
        </meta>
        <text>
          <status value="extensions"/>
          <div xmlns="http://www.w3.org/1999/xhtml">
            <table>
              <caption>Observatie/bepaling. Subject: Patient, E. XXX_Doppen. Id: 11111 (urn:oid:2.16.840.1.113883.2.4.3.11.999.25.4298.3), Categorie: <span title="Laboratory (laboratory - http://terminology.hl7.org/CodeSystem/observation-category)">Laboratory</span>, Status: onbekend<span style="display: block;">Uitvoerende: Healthcare provider (organization), Microbiologisch Lab Flagel</span>
              </caption>
              <tbody>
                <tr>
                  <th>Code</th>
                  <th>Waarde</th>
                </tr>
                <tr>
                  <td>
                    <span title="Chlamydia trachomatis DNA [aanwezigheid] d.m.v. moleculaire techniek (PCR) (21613-5 - LOINC)">Chlamydia trachomatis DNA [aanwezigheid] d.m.v. moleculaire techniek (PCR)</span>
                  </td>
                  <td>
                    <span title="aangetoond (kwalificatiewaarde) (260373001 - SNOMED CT)">aangetoond (kwalificatiewaarde)</span>
                  </td>
                </tr>
              </tbody>
            </table>
          </div>
        </text>
        <extension url="http://nictiz.nl/fhir/StructureDefinition/ext-EdifactReferenceNumber">
          <valueString value="111666"/>
        </extension>
        <identifier>
          <system value="urn:oid:2.16.840.1.113883.2.4.3.11.999.25.4298.3"/>
          <value value="11111"/>
        </identifier>
        <status value="unknown"/>
        <category>
          <coding>
            <system value="http://terminology.hl7.org/CodeSystem/observation-category"/>
            <code value="laboratory"/>
            <display value="Laboratory"/>
          </coding>
        </category>
        <code>
          <coding>
            <system value="http://loinc.org"/>
            <code value="21613-5"/>
            <display value="Chlamydia trachomatis DNA [aanwezigheid] d.m.v. moleculaire techniek (PCR)"/>
          </coding>
        </code>
        <subject>
          <reference value="urn:uuid:930e0d36-4981-11ef-1134-020000000000"/>
          <type value="Patient"/>
          <display value="Patient, E. XXX_Doppen"/>
        </subject>
        <performer>
          <reference value="urn:uuid:930e0d54-4981-11ef-1134-020000000000"/>
          <type value="Organization"/>
          <display value="Healthcare provider (organization), Microbiologisch Lab Flagel"/>
        </performer>
        <valueCodeableConcept>
          <coding>
            <system value="http://snomed.info/sct"/>
            <code value="260373001"/>
            <display value="aangetoond (kwalificatiewaarde)"/>
          </coding>
        </valueCodeableConcept>
      </Observation>
    </resource>
    <request>
      <method value="POST"/>
      <url value="Observation"/>
    </request>
  </entry>
  <entry>
    <fullUrl value="urn:uuid:930e0d54-4981-11ef-1134-020000000000"/>
    <resource>
      <Organization>
        <meta>
          <profile value="http://nictiz.nl/fhir/StructureDefinition/nl-core-HealthcareProvider-Organization"/>
        </meta>
        <text>
          <status value="extensions"/>
          <div xmlns="http://www.w3.org/1999/xhtml">
            <table>
              <caption>Organisatie. Id: 00003334 (URA)</caption>
              <tbody>
                <tr>
                  <th>Naam</th>
                  <td>Microbiologisch Lab Flagel</td>
                </tr>
                <tr>
                  <th>Type</th>
                  <td>
                    <span title="Laboratorium (L1 - organization-type)">Laboratorium</span>
                  </td>
                </tr>
                <tr>
                  <th>Contactgegevens</th>
                  <td>
                    <a href="tel:06-11122244">06-11122244</a> (Tel)</td>
                </tr>
                <tr>
                  <th>Adres</th>
                  <td>Kerkstraat 23, 2143BB Zorgstad (Werk)</td>
                </tr>
              </tbody>
            </table>
          </div>
        </text>
        <identifier>
          <system value="http://fhir.nl/fhir/NamingSystem/ura"/>
          <value value="00003334"/>
        </identifier>
        <type>
          <coding>
            <system value="http://nictiz.nl/fhir/NamingSystem/organization-type"/>
            <version value="2022-09-10T00:00:00"/>
            <code value="L1"/>
            <display value="Laboratorium"/>
          </coding>
        </type>
        <name value="Microbiologisch Lab Flagel"/>
        <telecom>
          <system value="phone"/>
          <value value="06-11122244"/>
        </telecom>
        <address>
          <extension url="http://nictiz.nl/fhir/StructureDefinition/ext-AddressInformation.AddressType">
            <valueCodeableConcept>
              <coding>
                <system value="http://terminology.hl7.org/CodeSystem/v3-AddressUse"/>
                <code value="WP"/>
                <display value="Werkadres"/>
              </coding>
            </valueCodeableConcept>
          </extension>
          <use value="work"/>
          <line value="Kerkstraat 23">
            <extension url="http://hl7.org/fhir/StructureDefinition/iso21090-ADXP-streetName">
              <valueString value="Kerkstraat"/>
            </extension>
            <extension url="http://hl7.org/fhir/StructureDefinition/iso21090-ADXP-houseNumber">
              <valueString value="23"/>
            </extension>
          </line>
          <city value="Zorgstad"/>
          <postalCode value="2143BB"/>
        </address>
      </Organization>
    </resource>
    <request>
      <method value="POST"/>
      <url value="Organization"/>
    </request>
  </entry>
  <entry>
    <fullUrl value="urn:uuid:930e0d36-4981-11ef-1134-020000000000"/>
    <resource>
      <Patient>
        <meta>
          <profile value="http://nictiz.nl/fhir/StructureDefinition/nl-core-Patient"/>
        </meta>
        <text>
          <status value="extensions"/>
          <div xmlns="http://www.w3.org/1999/xhtml">
            <div>Id 999900511 (BSN), E. XXX_Doppen, Man, 24 oktober 1963</div>
          </div>
        </text>
        <identifier>
          <system value="http://fhir.nl/fhir/NamingSystem/bsn"/>
          <value value="999900511"/>
        </identifier>
        <name>
          <use value="official"/>
          <text value="E. XXX_Doppen"/>
          <family value="XXX_Doppen">
            <extension url="http://hl7.org/fhir/StructureDefinition/humanname-own-name">
              <valueString value="XXX_Doppen"/>
            </extension>
          </family>
          <given value="E.">
            <extension url="http://hl7.org/fhir/StructureDefinition/iso21090-EN-qualifier">
              <valueCode value="IN"/>
            </extension>
          </given>
        </name>
        <gender value="male">
          <extension url="http://nictiz.nl/fhir/StructureDefinition/ext-CodeSpecification">
            <valueCodeableConcept>
              <coding>
                <system value="http://terminology.hl7.org/CodeSystem/v3-AdministrativeGender"/>
                <code value="M"/>
                <display value="Man"/>
              </coding>
            </valueCodeableConcept>
          </extension>
        </gender>
        <birthDate value="1963-10-24"/>
      </Patient>
    </resource>
    <request>
      <method value="POST"/>
      <url value="Patient"/>
    </request>
  </entry>
</Bundle>
