<Bundle xmlns="http://hl7.org/fhir">
  <id value="KWAL-1-4KCNHG"/>
  <type value="transaction"/>
  <entry>
    <fullUrl value="urn:uuid:92dbef5e-4981-11ef-2702-020000000000"/>
    <resource>
      <Observation>
        <meta>
          <profile value="http://nictiz.nl/fhir/StructureDefinition/nl-core-LaboratoryTestResult"/>
        </meta>
        <text>
          <status value="extensions"/>
          <div xmlns="http://www.w3.org/1999/xhtml">
            <table>
              <caption>Observatie/bepaling. Subject: Patient, Patricia XXX_Sacht. Id: 91111 (urn:oid:2.16.840.1.113883.2.4.3.11.999.25.4298.2), Categorie: <span title="Laboratory (laboratory - http://terminology.hl7.org/CodeSystem/observation-category)">Laboratory</span>, Status: definitief<span style="display: block;">Uitvoerende: Healthcare provider (organization), Klinisch chemisch Lab 't Proefje</span>
              </caption>
              <tbody>
                <tr>
                  <th>Bepalingdatum/tijd</th>
                  <td colspan="3">${DATE, T, D, -30}</td>
                </tr>
                <tr>
                  <th>Specimen</th>
                  <td colspan="3">monster</td>
                </tr>
                <tr>
                  <th>Code</th>
                  <th>Waarde</th>
                  <th>Interpretatie</th>
                  <th>Referentiewaarden</th>
                </tr>
                <tr>
                  <td>
                    <span title="eGFR volgens CKD-EPI formule (3583 - nhg-tabel-45-diagnostische-bepalingen)">eGFR volgens CKD-EPI formule</span>
                  </td>
                  <td>99 ml/min/{1.73m2}</td>
                  <td>Waarde is goed.</td>
                  <td>
                    <div>90 ml/min/{1.73m2} - </div>
                  </td>
                </tr>
              </tbody>
            </table>
          </div>
        </text>
        <extension url="http://nictiz.nl/fhir/StructureDefinition/ext-CopyIndicator">
          <valueBoolean value="true"/>
        </extension>
        <extension url="http://nictiz.nl/fhir/StructureDefinition/ext-EdifactReferenceNumber">
          <valueString value="999111"/>
        </extension>
        <identifier>
          <system value="urn:oid:2.16.840.1.113883.2.4.3.11.999.25.4298.2"/>
          <value value="91111"/>
        </identifier>
        <status value="final"/>
        <category>
          <coding>
            <system value="http://terminology.hl7.org/CodeSystem/observation-category"/>
            <code value="laboratory"/>
            <display value="Laboratory"/>
          </coding>
        </category>
        <code>
          <coding>
            <system value="https://referentiemodel.nhg.org/tabellen/nhg-tabel-45-diagnostische-bepalingen"/>
            <code value="3583"/>
            <display value="eGFR volgens CKD-EPI formule"/>
          </coding>
        </code>
        <subject>
          <reference value="urn:uuid:92dbef04-4981-11ef-2702-020000000000"/>
          <type value="Patient"/>
          <display value="Patient, Patricia XXX_Sacht"/>
        </subject>
        <effectiveDateTime value="${DATE, T, D, -30}"/>
        <performer>
          <reference value="urn:uuid:92dbef22-4981-11ef-2702-020000000000"/>
          <type value="Organization"/>
          <display value="Healthcare provider (organization), Klinisch chemisch Lab 't Proefje"/>
        </performer>
        <valueQuantity>
          <value value="99"/>
          <unit value="ml/min/{1.73m2}"/>
          <system value="http://unitsofmeasure.org"/>
          <code value="ml/min/{1.73m2}"/>
        </valueQuantity>
        <interpretation>
          <text value="Waarde is goed."/>
        </interpretation>
        <specimen>
          <reference value="urn:uuid:92dbeff4-4981-11ef-2702-020000000000"/>
          <type value="Specimen"/>
          <display value="monster"/>
        </specimen>
        <referenceRange>
          <low>
            <value value="90"/>
            <unit value="ml/min/{1.73m2}"/>
            <system value="http://unitsofmeasure.org"/>
            <code value="ml/min/{1.73m2}"/>
          </low>
        </referenceRange>
      </Observation>
    </resource>
    <request>
      <method value="POST"/>
      <url value="Observation"/>
    </request>
  </entry>
  <entry>
    <fullUrl value="urn:uuid:92dbef7c-4981-11ef-2702-020000000000"/>
    <resource>
      <Observation>
        <meta>
          <profile value="http://nictiz.nl/fhir/StructureDefinition/nl-core-LaboratoryTestResult"/>
        </meta>
        <text>
          <status value="extensions"/>
          <div xmlns="http://www.w3.org/1999/xhtml">
            <table>
              <caption>Observatie/bepaling. Subject: Patient, Patricia XXX_Sacht. Id: 92222 (urn:oid:2.16.840.1.113883.2.4.3.11.999.25.4298.2), Categorie: <span title="Laboratory (laboratory - http://terminology.hl7.org/CodeSystem/observation-category)">Laboratory</span>, Status: definitief<span style="display: block;">Uitvoerende: Healthcare provider (organization), Klinisch chemisch Lab 't Proefje</span>
              </caption>
              <tbody>
                <tr>
                  <th>Bepalingdatum/tijd</th>
                  <td colspan="3">${DATE, T, D, -30}</td>
                </tr>
                <tr>
                  <th>Methode</th>
                  <td colspan="3">
                    <span title="enzyme method (258026004 - SNOMED CT)">enzyme method</span>
                  </td>
                </tr>
                <tr>
                  <th>Specimen</th>
                  <td colspan="3">monster</td>
                </tr>
                <tr>
                  <th>Code</th>
                  <th>Waarde</th>
                  <th>Interpretatie</th>
                  <th>Referentiewaarden</th>
                </tr>
                <tr>
                  <td>
                    <span title="creatinine (523 - nhg-tabel-45-diagnostische-bepalingen)">creatinine</span>
                  </td>
                  <td>138 micromol/l</td>
                  <td>
                    <span title="boven referentiebereik (281302008 - SNOMED CT)">boven referentiebereik</span>, Creatinine iets hoger dan normaal.</td>
                  <td>
                    <div>62 micromol/l - 134 micromol/l</div>
                  </td>
                </tr>
              </tbody>
            </table>
          </div>
        </text>
        <extension url="http://nictiz.nl/fhir/StructureDefinition/ext-CopyIndicator">
          <valueBoolean value="true"/>
        </extension>
        <extension url="http://nictiz.nl/fhir/StructureDefinition/ext-EdifactReferenceNumber">
          <valueString value="999111"/>
        </extension>
        <identifier>
          <system value="urn:oid:2.16.840.1.113883.2.4.3.11.999.25.4298.2"/>
          <value value="92222"/>
        </identifier>
        <status value="final"/>
        <category>
          <coding>
            <system value="http://terminology.hl7.org/CodeSystem/observation-category"/>
            <code value="laboratory"/>
            <display value="Laboratory"/>
          </coding>
        </category>
        <code>
          <coding>
            <system value="https://referentiemodel.nhg.org/tabellen/nhg-tabel-45-diagnostische-bepalingen"/>
            <code value="523"/>
            <display value="creatinine"/>
          </coding>
        </code>
        <subject>
          <reference value="urn:uuid:92dbef04-4981-11ef-2702-020000000000"/>
          <type value="Patient"/>
          <display value="Patient, Patricia XXX_Sacht"/>
        </subject>
        <effectiveDateTime value="${DATE, T, D, -30}"/>
        <performer>
          <reference value="urn:uuid:92dbef22-4981-11ef-2702-020000000000"/>
          <type value="Organization"/>
          <display value="Healthcare provider (organization), Klinisch chemisch Lab 't Proefje"/>
        </performer>
        <valueQuantity>
          <value value="138"/>
          <unit value="micromol/l"/>
          <system value="http://unitsofmeasure.org"/>
          <code value="{micromol/l}"/>
        </valueQuantity>
        <interpretation>
          <coding>
            <system value="http://snomed.info/sct"/>
            <code value="281302008"/>
            <display value="boven referentiebereik"/>
          </coding>
          <coding>
            <system value="http://terminology.hl7.org/CodeSystem/v3-ObservationInterpretation"/>
            <code value="H"/>
            <display value="High"/>
          </coding>
        </interpretation>
        <interpretation>
          <text value="Creatinine iets hoger dan normaal."/>
        </interpretation>
        <method>
          <coding>
            <system value="http://snomed.info/sct"/>
            <code value="258026004"/>
            <display value="enzyme method"/>
          </coding>
        </method>
        <specimen>
          <reference value="urn:uuid:92dbeff4-4981-11ef-2702-020000000000"/>
          <type value="Specimen"/>
          <display value="monster"/>
        </specimen>
        <referenceRange>
          <low>
            <value value="62"/>
            <unit value="micromol/l"/>
            <system value="http://unitsofmeasure.org"/>
            <code value="{micromol/l}"/>
          </low>
          <high>
            <value value="134"/>
            <unit value="micromol/l"/>
            <system value="http://unitsofmeasure.org"/>
            <code value="{micromol/l}"/>
          </high>
        </referenceRange>
      </Observation>
    </resource>
    <request>
      <method value="POST"/>
      <url value="Observation"/>
    </request>
  </entry>
  <entry>
    <fullUrl value="urn:uuid:92dbef9a-4981-11ef-2702-020000000000"/>
    <resource>
      <Observation>
        <meta>
          <profile value="http://nictiz.nl/fhir/StructureDefinition/nl-core-LaboratoryTestResult"/>
        </meta>
        <text>
          <status value="extensions"/>
          <div xmlns="http://www.w3.org/1999/xhtml">
            <table>
              <caption>Observatie/bepaling. Subject: Patient, Patricia XXX_Sacht. Id: 93333 (urn:oid:2.16.840.1.113883.2.4.3.11.999.25.4298.2), Categorie: <span title="Laboratory (laboratory - http://terminology.hl7.org/CodeSystem/observation-category)">Laboratory</span>, Status: definitief<span style="display: block;">Uitvoerende: Healthcare provider (organization), Klinisch chemisch Lab 't Proefje</span>
              </caption>
              <tbody>
                <tr>
                  <th>Bepalingdatum/tijd</th>
                  <td colspan="3">${DATE, T, D, -30}</td>
                </tr>
                <tr>
                  <th>Methode</th>
                  <td colspan="3">
                    <span title="enzyme method (258026004 - SNOMED CT)">enzyme method</span>
                  </td>
                </tr>
                <tr>
                  <th>Specimen</th>
                  <td colspan="3">monster</td>
                </tr>
                <tr>
                  <th>Code</th>
                  <th>Waarde</th>
                  <th>Interpretatie</th>
                  <th>Referentiewaarden</th>
                </tr>
                <tr>
                  <td>
                    <span title="albumine/creatinine ratio urine (ACR) (40 - nhg-tabel-45-diagnostische-bepalingen)">albumine/creatinine ratio urine (ACR)</span>
                  </td>
                  <td>2.3 mg/mmol</td>
                  <td>Goede uitslag voor een patient van 75 jaar.</td>
                  <td>
                    <div> - 3 mg/mmol</div>
                  </td>
                </tr>
              </tbody>
            </table>
          </div>
        </text>
        <extension url="http://nictiz.nl/fhir/StructureDefinition/ext-CopyIndicator">
          <valueBoolean value="true"/>
        </extension>
        <extension url="http://nictiz.nl/fhir/StructureDefinition/ext-EdifactReferenceNumber">
          <valueString value="999111"/>
        </extension>
        <identifier>
          <system value="urn:oid:2.16.840.1.113883.2.4.3.11.999.25.4298.2"/>
          <value value="93333"/>
        </identifier>
        <status value="final"/>
        <category>
          <coding>
            <system value="http://terminology.hl7.org/CodeSystem/observation-category"/>
            <code value="laboratory"/>
            <display value="Laboratory"/>
          </coding>
        </category>
        <code>
          <coding>
            <system value="https://referentiemodel.nhg.org/tabellen/nhg-tabel-45-diagnostische-bepalingen"/>
            <code value="40"/>
            <display value="albumine/creatinine ratio urine (ACR)"/>
          </coding>
        </code>
        <subject>
          <reference value="urn:uuid:92dbef04-4981-11ef-2702-020000000000"/>
          <type value="Patient"/>
          <display value="Patient, Patricia XXX_Sacht"/>
        </subject>
        <effectiveDateTime value="${DATE, T, D, -30}"/>
        <performer>
          <reference value="urn:uuid:92dbef22-4981-11ef-2702-020000000000"/>
          <type value="Organization"/>
          <display value="Healthcare provider (organization), Klinisch chemisch Lab 't Proefje"/>
        </performer>
        <valueQuantity>
          <value value="2.3"/>
          <unit value="mg/mmol"/>
          <system value="http://unitsofmeasure.org"/>
          <code value="mg/mmol"/>
        </valueQuantity>
        <interpretation>
          <text value="Goede uitslag voor een patient van 75 jaar."/>
        </interpretation>
        <method>
          <coding>
            <system value="http://snomed.info/sct"/>
            <code value="258026004"/>
            <display value="enzyme method"/>
          </coding>
        </method>
        <specimen>
          <reference value="urn:uuid:92dbeff4-4981-11ef-2702-020000000000"/>
          <type value="Specimen"/>
          <display value="monster"/>
        </specimen>
        <referenceRange>
          <high>
            <value value="3"/>
            <unit value="mg/mmol"/>
            <system value="http://unitsofmeasure.org"/>
            <code value="mg/mmol"/>
          </high>
        </referenceRange>
      </Observation>
    </resource>
    <request>
      <method value="POST"/>
      <url value="Observation"/>
    </request>
  </entry>
  <entry>
    <fullUrl value="urn:uuid:92dbefb8-4981-11ef-2702-020000000000"/>
    <resource>
      <Observation>
        <meta>
          <profile value="http://nictiz.nl/fhir/StructureDefinition/nl-core-LaboratoryTestResult"/>
        </meta>
        <text>
          <status value="extensions"/>
          <div xmlns="http://www.w3.org/1999/xhtml">
            <table>
              <caption>Observatie/bepaling. Subject: Patient, Patricia XXX_Sacht. Id: 44444 (urn:oid:2.16.840.1.113883.2.4.3.11.999.25.4298.2), Categorie: <span title="Laboratory (laboratory - http://terminology.hl7.org/CodeSystem/observation-category)">Laboratory</span>, Status: definitief<span style="display: block;">Uitvoerende: Healthcare provider (organization), Klinisch chemisch Lab 't Proefje</span>
              </caption>
              <tbody>
                <tr>
                  <th>Bepalingdatum/tijd</th>
                  <td colspan="2">${DATE, T, D, -30}</td>
                </tr>
                <tr>
                  <th>Specimen</th>
                  <td colspan="2">monster</td>
                </tr>
                <tr>
                  <th>Code</th>
                  <th>Waarde</th>
                  <th>Interpretatie</th>
                </tr>
                <tr>
                  <td>
                    <span title="albumine urine portie (38 - nhg-tabel-45-diagnostische-bepalingen)">albumine urine portie</span>
                  </td>
                  <td>0.1 mg/L</td>
                  <td>Zie ratio voor interpretatie.</td>
                </tr>
              </tbody>
            </table>
          </div>
        </text>
        <extension url="http://nictiz.nl/fhir/StructureDefinition/ext-CopyIndicator">
          <valueBoolean value="true"/>
        </extension>
        <extension url="http://nictiz.nl/fhir/StructureDefinition/ext-EdifactReferenceNumber">
          <valueString value="999111"/>
        </extension>
        <identifier>
          <system value="urn:oid:2.16.840.1.113883.2.4.3.11.999.25.4298.2"/>
          <value value="44444"/>
        </identifier>
        <status value="final"/>
        <category>
          <coding>
            <system value="http://terminology.hl7.org/CodeSystem/observation-category"/>
            <code value="laboratory"/>
            <display value="Laboratory"/>
          </coding>
        </category>
        <code>
          <coding>
            <system value="https://referentiemodel.nhg.org/tabellen/nhg-tabel-45-diagnostische-bepalingen"/>
            <code value="38"/>
            <display value="albumine urine portie"/>
          </coding>
        </code>
        <subject>
          <reference value="urn:uuid:92dbef04-4981-11ef-2702-020000000000"/>
          <type value="Patient"/>
          <display value="Patient, Patricia XXX_Sacht"/>
        </subject>
        <effectiveDateTime value="${DATE, T, D, -30}"/>
        <performer>
          <reference value="urn:uuid:92dbef22-4981-11ef-2702-020000000000"/>
          <type value="Organization"/>
          <display value="Healthcare provider (organization), Klinisch chemisch Lab 't Proefje"/>
        </performer>
        <valueQuantity>
          <value value="0.1"/>
          <unit value="mg/L"/>
          <system value="http://unitsofmeasure.org"/>
          <code value="mg/L"/>
        </valueQuantity>
        <interpretation>
          <text value="Zie ratio voor interpretatie."/>
        </interpretation>
        <specimen>
          <reference value="urn:uuid:92dbeff4-4981-11ef-2702-020000000000"/>
          <type value="Specimen"/>
          <display value="monster"/>
        </specimen>
      </Observation>
    </resource>
    <request>
      <method value="POST"/>
      <url value="Observation"/>
    </request>
  </entry>
  <entry>
    <fullUrl value="urn:uuid:92dbf012-4981-11ef-2702-020000000000"/>
    <resource>
      <Device>
        <meta>
          <profile value="http://nictiz.nl/fhir/StructureDefinition/nl-core-LaboratoryTestResult.SpecimenSource"/>
        </meta>
        <text>
          <status value="extensions"/>
          <div xmlns="http://www.w3.org/1999/xhtml">
            <table>
              <caption>Apparaat/Systeem. Patiënt: Patient, Patricia XXX_Sacht. </caption>
              <tbody>
                <tr>
                  <th>Type</th>
                  <td/>
                </tr>
              </tbody>
            </table>
          </div>
        </text>
        <deviceName>
          <name value="Katheter"/>
          <type value="other"/>
        </deviceName>
        <patient>
          <reference value="urn:uuid:92dbef04-4981-11ef-2702-020000000000"/>
          <type value="Patient"/>
          <display value="Patient, Patricia XXX_Sacht"/>
        </patient>
      </Device>
    </resource>
    <request>
      <method value="POST"/>
      <url value="Device"/>
    </request>
  </entry>
  <entry>
    <fullUrl value="urn:uuid:92dbeff4-4981-11ef-2702-020000000000"/>
    <resource>
      <Specimen>
        <meta>
          <profile value="http://nictiz.nl/fhir/StructureDefinition/nl-core-LaboratoryTestResult.Specimen"/>
        </meta>
        <text>
          <status value="extensions"/>
          <div xmlns="http://www.w3.org/1999/xhtml">
            <table>
              <caption>Specimen. Subject: bron_monster. Id: 1111 (urn:oid:2.16.840.1.113883.2.4.3.11.999.25.4267.2)</caption>
              <tfoot>
                <tr>
                  <td colspan="2">Urine ingeleverd door patiënt.</td>
                </tr>
              </tfoot>
              <tbody>
                <tr>
                  <th>Type</th>
                  <td>
                    <span title="Urine (122575003 - SNOMED CT)">Urine</span>
                  </td>
                </tr>
                <tr>
                  <th>Received</th>
                  <td>${DATE, T, D, -31}</td>
                </tr>
              </tbody>
            </table>
          </div>
        </text>
        <identifier>
          <system value="urn:oid:2.16.840.1.113883.2.4.3.11.999.25.4267.2"/>
          <value value="1111"/>
        </identifier>
        <type>
          <coding>
            <system value="http://snomed.info/sct"/>
            <code value="122575003"/>
            <display value="Urine"/>
          </coding>
        </type>
        <subject>
          <reference value="urn:uuid:92dbf012-4981-11ef-2702-020000000000"/>
          <type value="Device"/>
          <display value="bron_monster"/>
        </subject>
        <receivedTime value="${DATE, T, D, -31}"/>
        <note>
          <text value="Urine ingeleverd door patiënt."/>
        </note>
      </Specimen>
    </resource>
    <request>
      <method value="POST"/>
      <url value="Specimen"/>
    </request>
  </entry>
  <entry>
    <fullUrl value="urn:uuid:92dbef22-4981-11ef-2702-020000000000"/>
    <resource>
      <Organization>
        <meta>
          <profile value="http://nictiz.nl/fhir/StructureDefinition/nl-core-HealthcareProvider-Organization"/>
        </meta>
        <text>
          <status value="extensions"/>
          <div xmlns="http://www.w3.org/1999/xhtml">
            <table>
              <caption>Organisatie. Id: 00003333 (URA)</caption>
              <tbody>
                <tr>
                  <th>Naam</th>
                  <td>Klinisch chemisch Lab 't Proefje</td>
                </tr>
                <tr>
                  <th>Type</th>
                  <td>
                    <span title="Laboratorium (L1 - organization-type)">Laboratorium</span>
                  </td>
                </tr>
                <tr>
                  <th>Contactgegevens</th>
                  <td>
                    <a href="tel:06-11122233">06-11122233</a> (Tel Werk)<br/>
                    <a href="mailto:tproefje@lab.nl">tproefje@lab.nl</a> (E-mail Werk)<br/>
                  </td>
                </tr>
                <tr>
                  <th>Adres</th>
                  <td>Hoofdstraat 23, 1234 AA Zorgstad (Werk)</td>
                </tr>
              </tbody>
            </table>
          </div>
        </text>
        <identifier>
          <system value="http://fhir.nl/fhir/NamingSystem/ura"/>
          <value value="00003333"/>
        </identifier>
        <type>
          <coding>
            <system value="http://nictiz.nl/fhir/NamingSystem/organization-type"/>
            <version value="2022-09-10T00:00:00"/>
            <code value="L1"/>
            <display value="Laboratorium"/>
          </coding>
        </type>
        <name value="Klinisch chemisch Lab 't Proefje"/>
        <telecom>
          <extension url="http://nictiz.nl/fhir/StructureDefinition/ext-Comment">
            <valueString value="Bel met vragen"/>
          </extension>
          <system value="phone"/>
          <value value="06-11122233"/>
          <use value="work"/>
        </telecom>
        <telecom>
          <system value="email"/>
          <value value="tproefje@lab.nl"/>
          <use value="work"/>
        </telecom>
        <address>
          <extension url="http://nictiz.nl/fhir/StructureDefinition/ext-AddressInformation.AddressType">
            <valueCodeableConcept>
              <coding>
                <system value="http://terminology.hl7.org/CodeSystem/v3-AddressUse"/>
                <code value="WP"/>
                <display value="Werkadres"/>
              </coding>
            </valueCodeableConcept>
          </extension>
          <use value="work"/>
          <line value="Hoofdstraat 23">
            <extension url="http://hl7.org/fhir/StructureDefinition/iso21090-ADXP-streetName">
              <valueString value="Hoofdstraat"/>
            </extension>
            <extension url="http://hl7.org/fhir/StructureDefinition/iso21090-ADXP-houseNumber">
              <valueString value="23"/>
            </extension>
          </line>
          <city value="Zorgstad"/>
          <postalCode value="1234 AA"/>
        </address>
      </Organization>
    </resource>
    <request>
      <method value="POST"/>
      <url value="Organization"/>
    </request>
  </entry>
  <entry>
    <fullUrl value="urn:uuid:92dbef04-4981-11ef-2702-020000000000"/>
    <resource>
      <Patient>
        <meta>
          <profile value="http://nictiz.nl/fhir/StructureDefinition/nl-core-Patient"/>
        </meta>
        <text>
          <status value="extensions"/>
          <div xmlns="http://www.w3.org/1999/xhtml">
            <div>Id 999901011 (BSN), Patricia XXX_Sacht, Vrouw, 13 november 2000</div>
          </div>
        </text>
        <identifier>
          <system value="http://fhir.nl/fhir/NamingSystem/bsn"/>
          <value value="999901011"/>
        </identifier>
        <name>
          <use value="official"/>
          <text value="Patricia XXX_Sacht"/>
          <family value="XXX_Sacht">
            <extension url="http://hl7.org/fhir/StructureDefinition/humanname-own-name">
              <valueString value="XXX_Sacht"/>
            </extension>
          </family>
          <given value="Patricia">
            <extension url="http://hl7.org/fhir/StructureDefinition/iso21090-EN-qualifier">
              <valueCode value="BR"/>
            </extension>
          </given>
        </name>
        <gender value="female">
          <extension url="http://nictiz.nl/fhir/StructureDefinition/ext-CodeSpecification">
            <valueCodeableConcept>
              <coding>
                <system value="http://terminology.hl7.org/CodeSystem/v3-AdministrativeGender"/>
                <code value="F"/>
                <display value="Vrouw"/>
              </coding>
            </valueCodeableConcept>
          </extension>
        </gender>
        <birthDate value="2000-11-13"/>
      </Patient>
    </resource>
    <request>
      <method value="POST"/>
      <url value="Patient"/>
    </request>
  </entry>
</Bundle>
