{
  "resourceType": "Bundle",
  "id": "av-mp-va-tst-6-7b-tijdstippen-niet-flexibe-v20",
  "meta": {
    "profile": [
      "http://nictiz.nl/fhir/StructureDefinition/mp-MedicationPrescriptionProcessing-Bundle"
    ]
  },
  "type": "transaction",
  "entry": [
    {
      "fullUrl": "urn:uuid:c33f209e-6a95-11ec-0000-020000000000",
      "resource": {
        "resourceType": "MedicationDispense",
        "id": "mp-AdmAgr-mp9-MBH200tijdstippennietflexibelTA",
        "meta": {
          "profile": [
            "http://nictiz.nl/fhir/StructureDefinition/mp-AdministrationAgreement"
          ],
          "tag": [
            {
              "system": "http://terminology.hl7.org/CodeSystem/common-tags",
              "code": "actionable"
            }
          ]
        },
        "extension": [
          {
            "url": "http://nictiz.nl/fhir/StructureDefinition/ext-AdministrationAgreement.AdministrationAgreementDateTime",
            "valueDateTime": "${DATE, T, D, +0}T10:15:00+02:00"
          },
          {
            "url": "http://nictiz.nl/fhir/StructureDefinition/ext-RenderedDosageInstruction",
            "valueString": "elke dag om 09:00, 12:00 en 15:00 1 stuk - let op, tijden exact aanhouden, oraal"
          },
          {
            "url": "http://nictiz.nl/fhir/StructureDefinition/ext-PharmaceuticalTreatment.Identifier",
            "valueIdentifier": {
              "system": "urn:oid:2.16.840.1.113883.2.4.3.11.999.77.1.1",
              "value": "MBH_200_tijdstippen_niet_flexibel"
            }
          }
        ],
        "identifier": [
          {
            "system": "urn:oid:2.16.840.1.113883.2.4.3.11.999.77.422037009.1",
            "value": "MBH_200_tijdstippen_niet_flexibel_TA"
          }
        ],
        "status": "unknown",
        "category": {
          "coding": [
            {
              "system": "http://snomed.info/sct",
              "code": "422037009",
              "display": "toedieningsafspraak"
            }
          ]
        },
        "medicationReference": {
          "reference": "urn:uuid:c33f20da-6a95-11ec-0000-020000000000",
          "type": "Medication",
          "display": "METFORMINE 500MG TABLET"
        },
        "subject": {
          "reference": "urn:uuid:c33f2080-6a95-11ec-0000-020000000000",
          "type": "Patient",
          "display": "Patient, G. XXX_Hemsbergen"
        },
        "performer": [
          {
            "actor": {
              "reference": "urn:uuid:c33f2116-6a95-11ec-0000-020000000000",
              "type": "Organization",
              "display": "Healthcare provider (organization), Apotheek de Gulle Gaper"
            }
          }
        ],
        "authorizingPrescription": [
          {
            "type": "MedicationRequest",
            "identifier": {
              "system": "urn:oid:2.16.840.1.113883.2.4.3.11.999.77.16076005.1",
              "value": "MBH_200_tijdstippen_niet_flexibel_MA"
            },
            "display": "relatie naar medicatieafspraak met identificatie: MBH_200_tijdstippen_niet_flexibel_MA || 2.16.840.1.113883.2.4.3.11.999.77.16076005.1"
          }
        ],
        "dosageInstruction": [
          {
            "timing": {
              "repeat": {
                "extension": [
                  {
                    "url": "http://hl7.org/fhir/StructureDefinition/timing-exact",
                    "valueBoolean": true
                  }
                ],
                "timeOfDay": [
                  "09:00:00",
                  "12:00:00",
                  "15:00:00"
                ]
              }
            },
            "route": {
              "coding": [
                {
                  "system": "urn:oid:2.16.840.1.113883.2.4.4.9",
                  "code": "9",
                  "display": "oraal"
                }
              ]
            },
            "doseAndRate": [
              {
                "doseQuantity": {
                  "extension": [
                    {
                      "url": "http://hl7.org/fhir/StructureDefinition/iso21090-PQ-translation",
                      "valueQuantity": {
                        "value": 1,
                        "unit": "stuk",
                        "system": "urn:oid:2.16.840.1.113883.2.4.4.1.900.2",
                        "code": "245"
                      }
                    }
                  ],
                  "value": 1,
                  "unit": "stuk",
                  "system": "http://unitsofmeasure.org",
                  "code": "1"
                }
              }
            ]
          }
        ]
      },
      "request": {
        "method": "POST",
        "url": "MedicationDispense"
      }
    },
    {
      "fullUrl": "urn:uuid:c33f20bc-6a95-11ec-0000-020000000000",
      "resource": {
        "resourceType": "MedicationDispense",
        "id": "mp-MedDsp-mp9-MBH200tijdstippennietflexibelMVE",
        "meta": {
          "profile": [
            "http://nictiz.nl/fhir/StructureDefinition/mp-MedicationDispense"
          ],
          "tag": [
            {
              "system": "http://terminology.hl7.org/CodeSystem/common-tags",
              "code": "actionable"
            }
          ]
        },
        "extension": [
          {
            "url": "http://nictiz.nl/fhir/StructureDefinition/ext-PharmaceuticalTreatment.Identifier",
            "valueIdentifier": {
              "system": "urn:oid:2.16.840.1.113883.2.4.3.11.999.77.1.1",
              "value": "MBH_200_tijdstippen_niet_flexibel"
            }
          }
        ],
        "identifier": [
          {
            "system": "urn:oid:2.16.840.1.113883.2.4.3.11.999.77.373784005.1",
            "value": "MBH_200_tijdstippen_niet_flexibel_MVE"
          }
        ],
        "status": "completed",
        "category": {
          "coding": [
            {
              "system": "http://snomed.info/sct",
              "code": "373784005",
              "display": "verstrekken van medicatie"
            }
          ]
        },
        "medicationReference": {
          "reference": "urn:uuid:c33f20f8-6a95-11ec-0000-020000000000",
          "type": "Medication",
          "display": "METFORMINE HCL PCH TABLET 500MG"
        },
        "subject": {
          "reference": "urn:uuid:c33f2080-6a95-11ec-0000-020000000000",
          "type": "Patient",
          "display": "Patient, G. XXX_Hemsbergen"
        },
        "performer": [
          {
            "actor": {
              "reference": "urn:uuid:c33f2116-6a95-11ec-0000-020000000000",
              "type": "Organization",
              "display": "Healthcare provider (organization), Apotheek de Gulle Gaper"
            }
          }
        ],
        "authorizingPrescription": [
          {
            "type": "MedicationRequest",
            "identifier": {
              "system": "urn:oid:2.16.840.1.113883.2.4.3.11.999.77.52711000146108.1",
              "value": "MBH_200_tijdstippen_niet_flexibel_VV"
            },
            "display": "relatie naar verstrekkingsverzoek met identificatie: MBH_200_tijdstippen_niet_flexibel_VV || 2.16.840.1.113883.2.4.3.11.999.77.52711000146108.1"
          }
        ],
        "quantity": {
          "extension": [
            {
              "url": "http://hl7.org/fhir/StructureDefinition/iso21090-PQ-translation",
              "valueQuantity": {
                "value": 24,
                "unit": "stuk",
                "system": "urn:oid:2.16.840.1.113883.2.4.4.1.900.2",
                "code": "245"
              }
            }
          ],
          "value": 24,
          "unit": "stuk",
          "system": "http://unitsofmeasure.org",
          "code": "1"
        },
        "whenHandedOver": "${DATE, T, D, +0}T10:17:00+02:00"
      },
      "request": {
        "method": "POST",
        "url": "MedicationDispense"
      }
    },
    {
      "fullUrl": "urn:uuid:c33f2080-6a95-11ec-0000-020000000000",
      "resource": {
        "resourceType": "Patient",
        "id": "nl-core-Patient-mp9-G-XXX-Hemsbergen",
        "meta": {
          "profile": [
            "http://nictiz.nl/fhir/StructureDefinition/nl-core-Patient"
          ]
        },
        "identifier": [
          {
            "system": "http://fhir.nl/fhir/NamingSystem/bsn",
            "value": "999900602"
          }
        ],
        "name": [
          {
            "extension": [
              {
                "url": "http://hl7.org/fhir/StructureDefinition/humanname-assembly-order",
                "valueCode": "NL1"
              }
            ],
            "use": "official",
            "text": "G. XXX_Hemsbergen",
            "family": "XXX_Hemsbergen",
            "_family": {
              "extension": [
                {
                  "url": "http://hl7.org/fhir/StructureDefinition/humanname-own-name",
                  "valueString": "XXX_Hemsbergen"
                }
              ]
            },
            "given": [
              "G."
            ],
            "_given": [
              {
                "extension": [
                  {
                    "url": "http://hl7.org/fhir/StructureDefinition/iso21090-EN-qualifier",
                    "valueCode": "IN"
                  }
                ]
              }
            ]
          }
        ],
        "gender": "female",
        "_gender": {
          "extension": [
            {
              "url": "http://nictiz.nl/fhir/StructureDefinition/ext-CodeSpecification",
              "valueCodeableConcept": {
                "coding": [
                  {
                    "system": "http://terminology.hl7.org/CodeSystem/v3-AdministrativeGender",
                    "code": "F",
                    "display": "Vrouw"
                  }
                ]
              }
            }
          ]
        },
        "birthDate": "1963-11-02"
      },
      "request": {
        "method": "POST",
        "url": "Patient"
      }
    },
    {
      "fullUrl": "urn:uuid:c33f2116-6a95-11ec-0000-020000000000",
      "resource": {
        "resourceType": "Organization",
        "id": "nl-core-HPrv-Org-mp9-2165281100733-01236578",
        "meta": {
          "profile": [
            "http://nictiz.nl/fhir/StructureDefinition/nl-core-HealthcareProvider-Organization"
          ]
        },
        "identifier": [
          {
            "system": "http://fhir.nl/fhir/NamingSystem/ura",
            "value": "01236578"
          }
        ],
        "name": "Apotheek de Gulle Gaper"
      },
      "request": {
        "method": "POST",
        "url": "Organization"
      }
    },
    {
      "fullUrl": "urn:uuid:c33f20da-6a95-11ec-0000-020000000000",
      "resource": {
        "resourceType": "Medication",
        "id": "nl-core-PhPrd-mp9-216840111388324410-1090",
        "meta": {
          "profile": [
            "http://nictiz.nl/fhir/StructureDefinition/nl-core-PharmaceuticalProduct"
          ]
        },
        "code": {
          "coding": [
            {
              "system": "urn:oid:2.16.840.1.113883.2.4.4.10",
              "code": "1090",
              "display": "METFORMINE 500MG TABLET",
              "userSelected": true
            },
            {
              "system": "urn:oid:2.16.840.1.113883.2.4.4.1",
              "code": "3816",
              "display": "METFORMINE 500MG TABLET"
            }
          ],
          "text": "METFORMINE 500MG TABLET"
        }
      },
      "request": {
        "method": "POST",
        "url": "Medication"
      }
    },
    {
      "fullUrl": "urn:uuid:c33f20f8-6a95-11ec-0000-020000000000",
      "resource": {
        "resourceType": "Medication",
        "id": "nl-core-PhPrd-mp9-21684011138832447-693332",
        "meta": {
          "profile": [
            "http://nictiz.nl/fhir/StructureDefinition/nl-core-PharmaceuticalProduct"
          ]
        },
        "code": {
          "coding": [
            {
              "system": "urn:oid:2.16.840.1.113883.2.4.4.7",
              "code": "693332",
              "display": "METFORMINE HCL PCH TABLET 500MG",
              "userSelected": true
            },
            {
              "system": "urn:oid:2.16.840.1.113883.2.4.4.10",
              "code": "1090",
              "display": "METFORMINE 500MG TABLET"
            },
            {
              "system": "urn:oid:2.16.840.1.113883.2.4.4.1",
              "code": "3816",
              "display": "METFORMINE 500MG TABLET"
            }
          ],
          "text": "METFORMINE HCL PCH TABLET 500MG"
        }
      },
      "request": {
        "method": "POST",
        "url": "Medication"
      }
    }
  ]
}