{
  "resourceType": "Bundle",
  "id": "av-mp-va-tst-7-1-alle-ingredienten-v20",
  "meta": {
    "profile": [
      "http://nictiz.nl/fhir/StructureDefinition/mp-MedicationPrescriptionProcessing-Bundle"
    ]
  },
  "type": "transaction",
  "entry": [
    {
      "fullUrl": "urn:uuid:c33f0b9a-6a95-11ec-0000-020000000000",
      "resource": {
        "resourceType": "MedicationDispense",
        "meta": {
          "profile": [
            "http://nictiz.nl/fhir/StructureDefinition/mp-AdministrationAgreement"
          ],
          "tag": [
            {
              "system": "http://terminology.hl7.org/CodeSystem/common-tags",
              "code": "actionable"
            }
          ]
        },
        "extension": [
          {
            "url": "http://nictiz.nl/fhir/StructureDefinition/ext-AdministrationAgreement.AdministrationAgreementDateTime",
            "valueDateTime": "${DATE, T, D, +0}T13:00:00+02:00"
          },
          {
            "url": "http://nictiz.nl/fhir/StructureDefinition/ext-RenderedDosageInstruction",
            "valueString": "Vanaf T, tot en met T + 31 dagen, Zo nodig, cutaan"
          },
          {
            "url": "http://nictiz.nl/fhir/StructureDefinition/ext-TimeInterval.Period",
            "valuePeriod": {
              "start": "${DATE, T, D, +0}T00:00:00+02:00",
              "end": "${DATE, T, D, +31}T23:59:59+02:00"
            }
          },
          {
            "url": "http://nictiz.nl/fhir/StructureDefinition/ext-PharmaceuticalTreatment.Identifier",
            "valueIdentifier": {
              "system": "urn:oid:2.16.840.1.113883.2.4.3.11.999.77.1.1",
              "value": "MBH_200_magistraalalleingredienten"
            }
          }
        ],
        "identifier": [
          {
            "system": "urn:oid:2.16.840.1.113883.2.4.3.11.999.77.422037009.1",
            "value": "MBH_200_magistraalalleingredienten_TA"
          }
        ],
        "status": "unknown",
        "category": {
          "coding": [
            {
              "system": "http://snomed.info/sct",
              "code": "422037009",
              "display": "toedieningsafspraak"
            }
          ]
        },
        "medicationReference": {
          "reference": "urn:uuid:c33f0bd6-6a95-11ec-0000-020000000000",
          "type": "Medication",
          "display": "overig"
        },
        "subject": {
          "reference": "urn:uuid:c33f0b7c-6a95-11ec-0000-020000000000",
          "type": "Patient",
          "display": "Patient, G. XXX_Hess"
        },
        "performer": [
          {
            "actor": {
              "reference": "urn:uuid:c33f0bf4-6a95-11ec-0000-020000000000",
              "type": "Organization",
              "display": "Healthcare provider (organization), Apotheek De Gulle Gaper"
            }
          }
        ],
        "authorizingPrescription": [
          {
            "type": "MedicationRequest",
            "identifier": {
              "system": "urn:oid:2.16.840.1.113883.2.4.3.11.999.77.16076005.1",
              "value": "MBH_200_magistraalalleingredienten_MA"
            },
            "display": "relatie naar medicatieafspraak met identificatie: MBH_200_magistraalalleingredienten_MA || 2.16.840.1.113883.2.4.3.11.999.77.16076005.1"
          }
        ],
        "dosageInstruction": [
          {
            "asNeededCodeableConcept": {
              "coding": [
                {
                  "system": "https://referentiemodel.nhg.org/tabellen/nhg-tabel-25-gebruiksvoorschrift#aanvullend-numeriek",
                  "code": "1137",
                  "display": "Zo nodig"
                }
              ]
            },
            "route": {
              "coding": [
                {
                  "system": "urn:oid:2.16.840.1.113883.2.4.4.9",
                  "code": "53",
                  "display": "cutaan"
                }
              ]
            }
          }
        ]
      },
      "request": {
        "method": "POST",
        "url": "MedicationDispense"
      }
    },
    {
      "fullUrl": "urn:uuid:c33f0bb8-6a95-11ec-0000-020000000000",
      "resource": {
        "resourceType": "MedicationDispense",
        "meta": {
          "profile": [
            "http://nictiz.nl/fhir/StructureDefinition/mp-MedicationDispense"
          ],
          "tag": [
            {
              "system": "http://terminology.hl7.org/CodeSystem/common-tags",
              "code": "actionable"
            }
          ]
        },
        "extension": [
          {
            "url": "http://nictiz.nl/fhir/StructureDefinition/ext-PharmaceuticalTreatment.Identifier",
            "valueIdentifier": {
              "system": "urn:oid:2.16.840.1.113883.2.4.3.11.999.77.1.1",
              "value": "MBH_200_magistraalalleingredienten"
            }
          }
        ],
        "identifier": [
          {
            "system": "urn:oid:2.16.840.1.113883.2.4.3.11.999.77.373784005.1",
            "value": "MBH_200_magistraalalleingredienten_MVE"
          }
        ],
        "status": "completed",
        "category": {
          "coding": [
            {
              "system": "http://snomed.info/sct",
              "code": "373784005",
              "display": "verstrekken van medicatie"
            }
          ]
        },
        "medicationReference": {
          "reference": "urn:uuid:c33f0bd6-6a95-11ec-0000-020000000000",
          "type": "Medication",
          "display": "overig"
        },
        "subject": {
          "reference": "urn:uuid:c33f0b7c-6a95-11ec-0000-020000000000",
          "type": "Patient",
          "display": "Patient, G. XXX_Hess"
        },
        "performer": [
          {
            "actor": {
              "reference": "urn:uuid:c33f0bf4-6a95-11ec-0000-020000000000",
              "type": "Organization",
              "display": "Healthcare provider (organization), Apotheek De Gulle Gaper"
            }
          }
        ],
        "authorizingPrescription": [
          {
            "type": "MedicationRequest",
            "identifier": {
              "system": "urn:oid:2.16.840.1.113883.2.4.3.11.999.77.52711000146108.1",
              "value": "MBH_200_magistraalalleingredienten_VV"
            },
            "display": "relatie naar verstrekkingsverzoek met identificatie: MBH_200_magistraalalleingredienten_VV || 2.16.840.1.113883.2.4.3.11.999.77.52711000146108.1"
          }
        ],
        "quantity": {
          "extension": [
            {
              "url": "http://hl7.org/fhir/StructureDefinition/iso21090-PQ-translation",
              "valueQuantity": {
                "value": 100,
                "unit": "milliliter",
                "system": "urn:oid:2.16.840.1.113883.2.4.4.1.900.2",
                "code": "233"
              }
            }
          ],
          "value": 100,
          "unit": "milliliter",
          "system": "http://unitsofmeasure.org",
          "code": "ml"
        },
        "whenHandedOver": "${DATE, T, D, +0}T13:00:00+02:00"
      },
      "request": {
        "method": "POST",
        "url": "MedicationDispense"
      }
    },
    {
      "fullUrl": "urn:uuid:c33f0b7c-6a95-11ec-0000-020000000000",
      "resource": {
        "resourceType": "Patient",
        "meta": {
          "profile": [
            "http://nictiz.nl/fhir/StructureDefinition/nl-core-Patient"
          ]
        },
        "identifier": [
          {
            "system": "http://fhir.nl/fhir/NamingSystem/bsn",
            "value": "999900614"
          }
        ],
        "name": [
          {
            "extension": [
              {
                "url": "http://hl7.org/fhir/StructureDefinition/humanname-assembly-order",
                "valueCode": "NL1"
              }
            ],
            "use": "official",
            "text": "G. XXX_Hess",
            "family": "XXX_Hess",
            "_family": {
              "extension": [
                {
                  "url": "http://hl7.org/fhir/StructureDefinition/humanname-own-name",
                  "valueString": "XXX_Hess"
                }
              ]
            },
            "given": [
              "G."
            ],
            "_given": [
              {
                "extension": [
                  {
                    "url": "http://hl7.org/fhir/StructureDefinition/iso21090-EN-qualifier",
                    "valueCode": "IN"
                  }
                ]
              }
            ]
          }
        ],
        "gender": "male",
        "_gender": {
          "extension": [
            {
              "url": "http://nictiz.nl/fhir/StructureDefinition/ext-CodeSpecification",
              "valueCodeableConcept": {
                "coding": [
                  {
                    "system": "http://terminology.hl7.org/CodeSystem/v3-AdministrativeGender",
                    "code": "M",
                    "display": "Man"
                  }
                ]
              }
            }
          ]
        },
        "birthDate": "1963-11-03"
      },
      "request": {
        "method": "POST",
        "url": "Patient"
      }
    },
    {
      "fullUrl": "urn:uuid:c33f0bf4-6a95-11ec-0000-020000000000",
      "resource": {
        "resourceType": "Organization",
        "meta": {
          "profile": [
            "http://nictiz.nl/fhir/StructureDefinition/nl-core-HealthcareProvider-Organization"
          ]
        },
        "identifier": [
          {
            "system": "http://fhir.nl/fhir/NamingSystem/ura",
            "value": "01236578"
          }
        ],
        "name": "Apotheek De Gulle Gaper"
      },
      "request": {
        "method": "POST",
        "url": "Organization"
      }
    },
    {
      "fullUrl": "urn:uuid:c33f0bd6-6a95-11ec-0000-020000000000",
      "resource": {
        "resourceType": "Medication",
        "meta": {
          "profile": [
            "http://nictiz.nl/fhir/StructureDefinition/nl-core-PharmaceuticalProduct"
          ]
        },
        "extension": [
          {
            "url": "http://nictiz.nl/fhir/StructureDefinition/ext-PharmaceuticalProduct.Description",
            "valueString": "Titel: Ureum 10% in eucerine cum aqua 100gr           Regel: UREUM 10gr           Regel: EUCERINE MET WATER FAGRON ad 100gr"
          }
        ],
        "code": {
          "coding": [
            {
              "system": "http://terminology.hl7.org/CodeSystem/v3-NullFlavor",
              "code": "OTH",
              "display": "overig"
            }
          ],
          "text": "Ureum 10% in eucerine cum aqua 100gr"
        },
        "ingredient": [
          {
            "itemCodeableConcept": {
              "coding": [
                {
                  "system": "urn:oid:2.16.840.1.113883.2.4.4.7",
                  "code": "1042467",
                  "display": "UREUM ZALF 10% FAGRON"
                }
              ]
            },
            "strength": {
              "numerator": {
                "extension": [
                  {
                    "url": "http://hl7.org/fhir/StructureDefinition/iso21090-PQ-translation",
                    "valueQuantity": {
                      "value": 10,
                      "unit": "gram",
                      "system": "urn:oid:2.16.840.1.113883.2.4.4.1.900.2",
                      "code": "215"
                    }
                  }
                ],
                "value": 10,
                "unit": "gram",
                "system": "http://unitsofmeasure.org",
                "code": "g"
              },
              "denominator": {
                "extension": [
                  {
                    "url": "http://hl7.org/fhir/StructureDefinition/iso21090-PQ-translation",
                    "valueQuantity": {
                      "value": 100,
                      "unit": "gram",
                      "system": "urn:oid:2.16.840.1.113883.2.4.4.1.900.2",
                      "code": "215"
                    }
                  }
                ],
                "value": 100,
                "unit": "gram",
                "system": "http://unitsofmeasure.org",
                "code": "g"
              }
            }
          },
          {
            "itemCodeableConcept": {
              "coding": [
                {
                  "system": "urn:oid:2.16.840.1.113883.2.4.4.7",
                  "code": "1516981",
                  "display": "EUCERINE MET WATER FAGRON"
                }
              ]
            },
            "strength": {
              "numerator": {
                "extension": [
                  {
                    "url": "http://hl7.org/fhir/StructureDefinition/iso21090-PQ-translation",
                    "valueQuantity": {
                      "value": 90,
                      "unit": "gram",
                      "system": "urn:oid:2.16.840.1.113883.2.4.4.1.900.2",
                      "code": "215"
                    }
                  }
                ],
                "value": 90,
                "unit": "gram",
                "system": "http://unitsofmeasure.org",
                "code": "g"
              },
              "denominator": {
                "extension": [
                  {
                    "url": "http://hl7.org/fhir/StructureDefinition/iso21090-PQ-translation",
                    "valueQuantity": {
                      "value": 100,
                      "unit": "gram",
                      "system": "urn:oid:2.16.840.1.113883.2.4.4.1.900.2",
                      "code": "215"
                    }
                  }
                ],
                "value": 100,
                "unit": "gram",
                "system": "http://unitsofmeasure.org",
                "code": "g"
              }
            }
          }
        ]
      },
      "request": {
        "method": "POST",
        "url": "Medication"
      }
    }
  ]
}