{
  "resourceType": "Bundle",
  "id": "av-mp-va-tst-6-6-variabele-hoeveelheid-2-v20",
  "meta": {
    "profile": [ "http://nictiz.nl/fhir/StructureDefinition/mp-MedicationPrescriptionProcessing-Bundle" ]
  },
  "type": "transaction",
  "entry": [ {
    "fullUrl": "urn:uuid:c33f1932-6a95-11ec-0000-020000000000",
    "resource": {
      "resourceType": "MedicationDispense",
      "meta": {
        "profile": [ "http://nictiz.nl/fhir/StructureDefinition/mp-AdministrationAgreement" ],
        "tag": [ {
          "system": "http://terminology.hl7.org/CodeSystem/common-tags",
          "code": "actionable"
        } ]
      },
      "text": {
        "status": "extensions",
        "div": "<div xmlns=\"http://www.w3.org/1999/xhtml\">\n            <table>\n              <caption>MedicationDispense. Subject: Patient, G. XXX_Hemsbergen. Id: MBH_200_variabelehoeveelheid2_TA (urn:oid:2.16.840.1.113883.2.4.3.11.999.77.422037009.1), Categorie: <span title=\"toedieningsafspraak (422037009 - SNOMED CT)\">toedieningsafspraak</span>, Status: onbekend<span style=\"display: block;\">Uitvoerende: Healthcare provider (organization), Apotheek de Gulle Gaper</span>\n              </caption>\n              <tbody>\n                <tr>\n                  <th>Gebaseerd op</th>\n                  <td>relatie naar medicatieafspraak met identificatie: MBH_200_variabelehoeveelheid2_MA || 2.16.840.1.113883.2.4.3.11.999.77.16076005.1 (Id: MBH_200_variabelehoeveelheid2_MA (urn:oid:2.16.840.1.113883.2.4.3.11.999.77.16076005.1))</td>\n                </tr>\n                <tr>\n                  <th>Medicatie</th>\n                  <td>WATERSTOFPEROXIDE 3% CONC VOOR MONDSP FNA MR</td>\n                </tr>\n                <tr>\n                  <th>Doseerinstructie</th>\n                  <td>\n                    <div>Instructie: <ul>\n                        <li>\n                          <span title=\"Eerst oplossen in water (27 - nhg-tabel-25-gebruiksvoorschrift#aanvullend-numeriek)\">Eerst oplossen in water</span>\n                        </li>\n                        <li>\n                          <span title=\"mond spoelen, daarna uitspugen (69 - nhg-tabel-25-gebruiksvoorschrift#aanvullend-numeriek)\">mond spoelen, daarna uitspugen</span>\n                        </li>\n                      </ul>\n                    </div>\n                    <div>Timing: <div>2 maal per dag</div>\n                    </div>\n                    <div>Toedieningsweg: <span title=\"OROMUCOSAAL (34 - G-Standaard thesaurus subtabel 0007)\">OROMUCOSAAL</span>\n                    </div>\n                    <div>Dosering: doseAndRate TODO</div>\n                  </td>\n                </tr>\n              </tbody>\n            </table>\n          </div>"
      },
      "extension": [ {
        "url": "http://nictiz.nl/fhir/StructureDefinition/ext-AdministrationAgreement.AdministrationAgreementDateTime",
        "valueDateTime": "${DATE, T, D, +0}T09:18:00+02:00"
      }, {
        "url": "http://nictiz.nl/fhir/StructureDefinition/ext-RenderedDosageInstruction",
        "valueString": "Vanaf T, tot en met T + 28 dagen, 2 maal per dag 10 à 15 ml, Eerst oplossen in water, mond spoelen, daarna uitspugen, OROMUCOSAAL"
      }, {
        "url": "http://nictiz.nl/fhir/StructureDefinition/ext-TimeInterval.Period",
        "valuePeriod": {
          "start": "${DATE, T, D, +0}T00:00:00+02:00",
          "end": "${DATE, T, D, +0}T23:59:59+02:00"
        }
      }, {
        "url": "http://nictiz.nl/fhir/StructureDefinition/ext-PharmaceuticalTreatment.Identifier",
        "valueIdentifier": {
          "system": "urn:oid:2.16.840.1.113883.2.4.3.11.999.77.1.1",
          "value": "MBH_200_variabelehoeveelheid2"
        }
      } ],
      "identifier": [ {
        "system": "urn:oid:2.16.840.1.113883.2.4.3.11.999.77.422037009.1",
        "value": "MBH_200_variabelehoeveelheid2_TA"
      } ],
      "status": "unknown",
      "category": {
        "coding": [ {
          "system": "http://snomed.info/sct",
          "code": "422037009",
          "display": "toedieningsafspraak"
        } ]
      },
      "medicationReference": {
        "reference": "urn:uuid:c33f196e-6a95-11ec-0000-020000000000",
        "type": "Medication",
        "display": "WATERSTOFPEROXIDE 3% CONC VOOR MONDSP FNA MR"
      },
      "subject": {
        "reference": "urn:uuid:c33f1914-6a95-11ec-0000-020000000000",
        "type": "Patient",
        "display": "Patient, G. XXX_Hemsbergen"
      },
      "performer": [ {
        "actor": {
          "reference": "urn:uuid:c33f198c-6a95-11ec-0000-020000000000",
          "type": "Organization",
          "display": "Healthcare provider (organization), Apotheek de Gulle Gaper"
        }
      } ],
      "authorizingPrescription": [ {
        "type": "MedicationRequest",
        "identifier": {
          "system": "urn:oid:2.16.840.1.113883.2.4.3.11.999.77.16076005.1",
          "value": "MBH_200_variabelehoeveelheid2_MA"
        },
        "display": "relatie naar medicatieafspraak met identificatie: MBH_200_variabelehoeveelheid2_MA || 2.16.840.1.113883.2.4.3.11.999.77.16076005.1"
      } ],
      "dosageInstruction": [ {
        "additionalInstruction": [ {
          "coding": [ {
            "system": "https://referentiemodel.nhg.org/tabellen/nhg-tabel-25-gebruiksvoorschrift#aanvullend-numeriek",
            "code": "27",
            "display": "Eerst oplossen in water"
          } ]
        }, {
          "coding": [ {
            "system": "https://referentiemodel.nhg.org/tabellen/nhg-tabel-25-gebruiksvoorschrift#aanvullend-numeriek",
            "code": "69",
            "display": "mond spoelen, daarna uitspugen"
          } ]
        } ],
        "timing": {
          "repeat": {
            "frequency": 2,
            "period": 1,
            "periodUnit": "d"
          }
        },
        "route": {
          "coding": [ {
            "system": "urn:oid:2.16.840.1.113883.2.4.4.9",
            "code": "34",
            "display": "OROMUCOSAAL"
          } ]
        },
        "doseAndRate": [ {
          "doseRange": {
            "low": {
              "extension": [ {
                "url": "http://hl7.org/fhir/StructureDefinition/iso21090-PQ-translation",
                "valueQuantity": {
                  "value": 10,
                  "unit": "milliliter",
                  "system": "urn:oid:2.16.840.1.113883.2.4.4.1.900.2",
                  "code": "233"
                }
              } ],
              "value": 10,
              "unit": "milliliter",
              "system": "http://unitsofmeasure.org",
              "code": "ml"
            },
            "high": {
              "extension": [ {
                "url": "http://hl7.org/fhir/StructureDefinition/iso21090-PQ-translation",
                "valueQuantity": {
                  "value": 15,
                  "unit": "milliliter",
                  "system": "urn:oid:2.16.840.1.113883.2.4.4.1.900.2",
                  "code": "233"
                }
              } ],
              "value": 15,
              "unit": "milliliter",
              "system": "http://unitsofmeasure.org",
              "code": "ml"
            }
          }
        } ]
      } ]
    },
    "request": {
      "method": "POST",
      "url": "MedicationDispense"
    }
  }, {
    "fullUrl": "urn:uuid:c33f1950-6a95-11ec-0000-020000000000",
    "resource": {
      "resourceType": "MedicationDispense",
      "meta": {
        "profile": [ "http://nictiz.nl/fhir/StructureDefinition/mp-MedicationDispense" ],
        "tag": [ {
          "system": "http://terminology.hl7.org/CodeSystem/common-tags",
          "code": "actionable"
        } ]
      },
      "text": {
        "status": "extensions",
        "div": "<div xmlns=\"http://www.w3.org/1999/xhtml\">\n            <table>\n              <caption>MedicationDispense. Subject: Patient, G. XXX_Hemsbergen. Id: MBH_200_variabelehoeveelheid2_MVE (urn:oid:2.16.840.1.113883.2.4.3.11.999.77.373784005.1), Categorie: <span title=\"verstrekken van medicatie (373784005 - SNOMED CT)\">verstrekken van medicatie</span>, Status: voltooid<span style=\"display: block;\">Uitvoerende: Healthcare provider (organization), Apotheek de Gulle Gaper</span>\n              </caption>\n              <tbody>\n                <tr>\n                  <th>Gebaseerd op</th>\n                  <td>relatie naar verstrekkingsverzoek met identificatie: MBH_200_variabelehoeveelheid2_VV || 2.16.840.1.113883.2.4.3.11.999.77.52711000146108.1 (Id: MBH_200_variabelehoeveelheid2_VV (urn:oid:2.16.840.1.113883.2.4.3.11.999.77.52711000146108.1))</td>\n                </tr>\n                <tr>\n                  <th>Medicatie</th>\n                  <td>WATERSTOFPEROXIDE 3% CONC VOOR MONDSP FNA MR</td>\n                </tr>\n                <tr>\n                  <th>Hoeveelheid</th>\n                  <td>450 milliliter</td>\n                </tr>\n                <tr>\n                  <th>Datum overhandigd</th>\n                  <td>${DATE, T, D, +0}T09:18:00+02:00</td>\n                </tr>\n              </tbody>\n            </table>\n          </div>"
      },
      "extension": [ {
        "url": "http://nictiz.nl/fhir/StructureDefinition/ext-PharmaceuticalTreatment.Identifier",
        "valueIdentifier": {
          "system": "urn:oid:2.16.840.1.113883.2.4.3.11.999.77.1.1",
          "value": "MBH_200_variabelehoeveelheid2"
        }
      } ],
      "identifier": [ {
        "system": "urn:oid:2.16.840.1.113883.2.4.3.11.999.77.373784005.1",
        "value": "MBH_200_variabelehoeveelheid2_MVE"
      } ],
      "status": "completed",
      "category": {
        "coding": [ {
          "system": "http://snomed.info/sct",
          "code": "373784005",
          "display": "verstrekken van medicatie"
        } ]
      },
      "medicationReference": {
        "reference": "urn:uuid:c33f196e-6a95-11ec-0000-020000000000",
        "type": "Medication",
        "display": "WATERSTOFPEROXIDE 3% CONC VOOR MONDSP FNA MR"
      },
      "subject": {
        "reference": "urn:uuid:c33f1914-6a95-11ec-0000-020000000000",
        "type": "Patient",
        "display": "Patient, G. XXX_Hemsbergen"
      },
      "performer": [ {
        "actor": {
          "reference": "urn:uuid:c33f198c-6a95-11ec-0000-020000000000",
          "type": "Organization",
          "display": "Healthcare provider (organization), Apotheek de Gulle Gaper"
        }
      } ],
      "authorizingPrescription": [ {
        "type": "MedicationRequest",
        "identifier": {
          "system": "urn:oid:2.16.840.1.113883.2.4.3.11.999.77.52711000146108.1",
          "value": "MBH_200_variabelehoeveelheid2_VV"
        },
        "display": "relatie naar verstrekkingsverzoek met identificatie: MBH_200_variabelehoeveelheid2_VV || 2.16.840.1.113883.2.4.3.11.999.77.52711000146108.1"
      } ],
      "quantity": {
        "extension": [ {
          "url": "http://hl7.org/fhir/StructureDefinition/iso21090-PQ-translation",
          "valueQuantity": {
            "value": 450,
            "unit": "milliliter",
            "system": "urn:oid:2.16.840.1.113883.2.4.4.1.900.2",
            "code": "233"
          }
        } ],
        "value": 450,
        "unit": "milliliter",
        "system": "http://unitsofmeasure.org",
        "code": "ml"
      },
      "whenHandedOver": "${DATE, T, D, +0}T09:18:00+02:00"
    },
    "request": {
      "method": "POST",
      "url": "MedicationDispense"
    }
  }, {
    "fullUrl": "urn:uuid:c33f1914-6a95-11ec-0000-020000000000",
    "resource": {
      "resourceType": "Patient",
      "meta": {
        "profile": [ "http://nictiz.nl/fhir/StructureDefinition/nl-core-Patient" ]
      },
      "text": {
        "status": "extensions",
        "div": "<div xmlns=\"http://www.w3.org/1999/xhtml\">\n            <div>Id 999900602 (BSN), G. XXX_Hemsbergen, Vrouw, 2 november 1963</div>\n          </div>"
      },
      "identifier": [ {
        "system": "http://fhir.nl/fhir/NamingSystem/bsn",
        "value": "999900602"
      } ],
      "name": [ {
        "extension": [ {
          "url": "http://hl7.org/fhir/StructureDefinition/humanname-assembly-order",
          "valueCode": "NL1"
        } ],
        "use": "official",
        "text": "G. XXX_Hemsbergen",
        "family": "XXX_Hemsbergen",
        "_family": {
          "extension": [ {
            "url": "http://hl7.org/fhir/StructureDefinition/humanname-own-name",
            "valueString": "XXX_Hemsbergen"
          } ]
        },
        "given": [ "G." ],
        "_given": [ {
          "extension": [ {
            "url": "http://hl7.org/fhir/StructureDefinition/iso21090-EN-qualifier",
            "valueCode": "IN"
          } ]
        } ]
      } ],
      "gender": "female",
      "_gender": {
        "extension": [ {
          "url": "http://nictiz.nl/fhir/StructureDefinition/ext-CodeSpecification",
          "valueCodeableConcept": {
            "coding": [ {
              "system": "http://terminology.hl7.org/CodeSystem/v3-AdministrativeGender",
              "code": "F",
              "display": "Vrouw"
            } ]
          }
        } ]
      },
      "birthDate": "1963-11-02"
    },
    "request": {
      "method": "POST",
      "url": "Patient"
    }
  }, {
    "fullUrl": "urn:uuid:c33f198c-6a95-11ec-0000-020000000000",
    "resource": {
      "resourceType": "Organization",
      "meta": {
        "profile": [ "http://nictiz.nl/fhir/StructureDefinition/nl-core-HealthcareProvider-Organization" ]
      },
      "text": {
        "status": "extensions",
        "div": "<div xmlns=\"http://www.w3.org/1999/xhtml\">\n            <table>\n              <caption>Organisatie. Id: 01236578 (URA)</caption>\n              <tbody>\n                <tr>\n                  <th>Naam</th>\n                  <td>Apotheek de Gulle Gaper</td>\n                </tr>\n              </tbody>\n            </table>\n          </div>"
      },
      "identifier": [ {
        "system": "http://fhir.nl/fhir/NamingSystem/ura",
        "value": "01236578"
      } ],
      "name": "Apotheek de Gulle Gaper"
    },
    "request": {
      "method": "POST",
      "url": "Organization"
    }
  }, {
    "fullUrl": "urn:uuid:c33f196e-6a95-11ec-0000-020000000000",
    "resource": {
      "resourceType": "Medication",
      "meta": {
        "profile": [ "http://nictiz.nl/fhir/StructureDefinition/nl-core-PharmaceuticalProduct" ]
      },
      "text": {
        "status": "extensions",
        "div": "<div xmlns=\"http://www.w3.org/1999/xhtml\">\n            <table>\n              <tbody>\n                <tr>\n                  <th>Code</th>\n                  <td>\n                    <span title=\"WATERSTOFPEROXIDE 3% CONC VOOR MONDSP FNA MR (261815 - G-Standaard HPK)\">WATERSTOFPEROXIDE 3% CONC VOOR MONDSP FNA MR</span>\n                  </td>\n                </tr>\n              </tbody>\n            </table>\n          </div>"
      },
      "code": {
        "coding": [ {
          "system": "urn:oid:2.16.840.1.113883.2.4.4.7",
          "code": "261815",
          "display": "WATERSTOFPEROXIDE 3% CONC VOOR MONDSP FNA MR",
          "userSelected": true
        }, {
          "system": "urn:oid:2.16.840.1.113883.2.4.4.10",
          "code": "72994",
          "display": "WATERSTOFPEROXIDE CONC VOOR MONDSPOELING 30MG/ML"
        }, {
          "system": "urn:oid:2.16.840.1.113883.2.4.4.1",
          "code": "119903",
          "display": "WATERSTOFPEROXIDE CONC VOOR MONDSPOELING 30MG/ML"
        } ],
        "text": "WATERSTOFPEROXIDE 3% CONC VOOR MONDSP FNA MR"
      }
    },
    "request": {
      "method": "POST",
      "url": "Medication"
    }
  } ]
}