{
  "resourceType": "Bundle",
  "id": "mg-mp-mg-tst-MA-Scenarioset10-v20",
  "type": "transaction",
  "entry": [
    {
      "fullUrl": "urn:uuid:c33f0d84-6a95-11ec-0000-020000000000",
      "resource": {
        "resourceType": "MedicationRequest",
        "meta": {
          "profile": [
            "http://nictiz.nl/fhir/StructureDefinition/mp-MedicationAgreement"
          ]
        },
        "extension": [
          {
            "url": "http://nictiz.nl/fhir/StructureDefinition/ext-RenderedDosageInstruction",
            "valueString": "Vanaf T - 170 dagen, tot en met T - 21 dagen, 1 maal per dag 1 stuk, Oraal"
          },
          {
            "url": "http://nictiz.nl/fhir/StructureDefinition/ext-TimeInterval.Period",
            "valuePeriod": {
              "start": "${DATE, T, D, -170}T00:00:00+02:00",
              "end": "${DATE, T, D, -21}T23:59:59+02:00"
            }
          },
          {
            "url": "http://nictiz.nl/fhir/StructureDefinition/ext-PharmaceuticalTreatment.Identifier",
            "valueIdentifier": {
              "system": "urn:oid:2.16.840.1.113883.2.4.3.11.999.77.1.1",
              "value": "MBH_200_HPKvoorschrijven"
            }
          }
        ],
        "identifier": [
          {
            "system": "urn:oid:2.16.840.1.113883.2.4.3.11.999.77.16076005.1",
            "value": "MBH_200_HPKvoorschrijven_MA"
          }
        ],
        "status": "unknown",
        "intent": "order",
        "category": [
          {
            "coding": [
              {
                "system": "http://snomed.info/sct",
                "code": "33633005",
                "display": "voorschrijven van geneesmiddel"
              }
            ]
          }
        ],
        "medicationReference": {
          "reference": "urn:uuid:c33f0dc0-6a95-11ec-0000-020000000000",
          "type": "Medication",
          "display": "XARELTO TABLET FILMOMHULD 20MG"
        },
        "subject": {
          "reference": "urn:uuid:c33f0d2a-6a95-11ec-0000-020000000000",
          "type": "Patient",
          "display": "Patient, J. XXX_Bree"
        },
        "authoredOn": "${DATE, T, D, -170}T13:00:00+02:00",
        "requester": {
          "reference": "urn:uuid:c33f0d48-6a95-11ec-0000-020000000000",
          "type": "PractitionerRole",
          "display": "Healthcare professional (role), Peter van Pulver, Huisartsen, niet nader gespecificeerd"
        },
        "dosageInstruction": [
          {
            "timing": {
              "repeat": {
                "frequency": 1,
                "period": 1,
                "periodUnit": "d"
              }
            },
            "route": {
              "coding": [
                {
                  "system": "urn:oid:2.16.840.1.113883.2.4.4.9",
                  "code": "9",
                  "display": "Oraal"
                }
              ]
            },
            "doseAndRate": [
              {
                "doseQuantity": {
                  "extension": [
                    {
                      "url": "http://hl7.org/fhir/StructureDefinition/iso21090-PQ-translation",
                      "valueQuantity": {
                        "value": 1,
                        "unit": "stuk",
                        "system": "urn:oid:2.16.840.1.113883.2.4.4.1.900.2",
                        "code": "245"
                      }
                    }
                  ],
                  "value": 1,
                  "unit": "stuk",
                  "system": "http://unitsofmeasure.org",
                  "code": "1"
                }
              }
            ]
          }
        ]
      },
      "request": {
        "method": "POST",
        "url": "MedicationRequest"
      }
    },
    {
      "fullUrl": "urn:uuid:c33f0da2-6a95-11ec-0000-020000000000",
      "resource": {
        "resourceType": "MedicationRequest",
        "meta": {
          "profile": [
            "http://nictiz.nl/fhir/StructureDefinition/mp-MedicationAgreement"
          ]
        },
        "extension": [
          {
            "url": "http://nictiz.nl/fhir/StructureDefinition/ext-RenderedDosageInstruction",
            "valueString": "Vanaf T, tot en met T + 150 dagen, 1 maal per dag 1 stuk, Oraal"
          },
          {
            "url": "http://nictiz.nl/fhir/StructureDefinition/ext-TimeInterval.Period",
            "valuePeriod": {
              "start": "${DATE, T, D, +0}T00:00:00+02:00",
              "end": "${DATE, T, D, +150}T23:59:59+02:00"
            }
          },
          {
            "url": "http://nictiz.nl/fhir/StructureDefinition/ext-PharmaceuticalTreatment.Identifier",
            "valueIdentifier": {
              "system": "urn:oid:2.16.840.1.113883.2.4.3.11.999.77.1.1",
              "value": "MBH_200_ZINRvoorschrijven"
            }
          }
        ],
        "identifier": [
          {
            "system": "urn:oid:2.16.840.1.113883.2.4.3.11.999.77.16076005.1",
            "value": "MBH_200_ZINRvoorschrijven_MA"
          }
        ],
        "status": "unknown",
        "intent": "order",
        "category": [
          {
            "coding": [
              {
                "system": "http://snomed.info/sct",
                "code": "33633005",
                "display": "voorschrijven van geneesmiddel"
              }
            ]
          }
        ],
        "medicationReference": {
          "reference": "urn:uuid:c33f0dde-6a95-11ec-0000-020000000000",
          "type": "Medication",
          "display": "INDAPAMIDE PCH TABET OMHULD 2,5MG"
        },
        "subject": {
          "reference": "urn:uuid:c33f0d2a-6a95-11ec-0000-020000000000",
          "type": "Patient",
          "display": "Patient, J. XXX_Bree"
        },
        "authoredOn": "${DATE, T, D, +0}T13:05:00+02:00",
        "requester": {
          "reference": "urn:uuid:c33f0d48-6a95-11ec-0000-020000000000",
          "type": "PractitionerRole",
          "display": "Healthcare professional (role), Peter van Pulver, Huisartsen, niet nader gespecificeerd"
        },
        "dosageInstruction": [
          {
            "timing": {
              "repeat": {
                "frequency": 1,
                "period": 1,
                "periodUnit": "d"
              }
            },
            "route": {
              "coding": [
                {
                  "system": "urn:oid:2.16.840.1.113883.2.4.4.9",
                  "code": "9",
                  "display": "Oraal"
                }
              ]
            },
            "doseAndRate": [
              {
                "doseQuantity": {
                  "extension": [
                    {
                      "url": "http://hl7.org/fhir/StructureDefinition/iso21090-PQ-translation",
                      "valueQuantity": {
                        "value": 1,
                        "unit": "stuk",
                        "system": "urn:oid:2.16.840.1.113883.2.4.4.1.900.2",
                        "code": "245"
                      }
                    }
                  ],
                  "value": 1,
                  "unit": "stuk",
                  "system": "http://unitsofmeasure.org",
                  "code": "1"
                }
              }
            ]
          }
        ]
      },
      "request": {
        "method": "POST",
        "url": "MedicationRequest"
      }
    },
    {
      "fullUrl": "urn:uuid:c33f0d2a-6a95-11ec-0000-020000000000",
      "resource": {
        "resourceType": "Patient",
        "meta": {
          "profile": [
            "http://nictiz.nl/fhir/StructureDefinition/nl-core-Patient"
          ]
        },
        "identifier": [
          {
            "system": "http://fhir.nl/fhir/NamingSystem/bsn",
            "value": "999901588"
          }
        ],
        "name": [
          {
            "extension": [
              {
                "url": "http://hl7.org/fhir/StructureDefinition/humanname-assembly-order",
                "valueCode": "NL1"
              }
            ],
            "use": "official",
            "text": "J. XXX_Bree",
            "family": "XXX_Bree",
            "_family": {
              "extension": [
                {
                  "url": "http://hl7.org/fhir/StructureDefinition/humanname-own-name",
                  "valueString": "XXX_Bree"
                }
              ]
            },
            "given": [
              "J."
            ],
            "_given": [
              {
                "extension": [
                  {
                    "url": "http://hl7.org/fhir/StructureDefinition/iso21090-EN-qualifier",
                    "valueCode": "IN"
                  }
                ]
              }
            ]
          }
        ],
        "gender": "male",
        "_gender": {
          "extension": [
            {
              "url": "http://nictiz.nl/fhir/StructureDefinition/ext-CodeSpecification",
              "valueCodeableConcept": {
                "coding": [
                  {
                    "system": "http://terminology.hl7.org/CodeSystem/v3-AdministrativeGender",
                    "code": "M",
                    "display": "Man"
                  }
                ]
              }
            }
          ]
        },
        "birthDate": "2010-07-01"
      },
      "request": {
        "method": "POST",
        "url": "Patient"
      }
    },
    {
      "fullUrl": "urn:uuid:c33f0d48-6a95-11ec-0000-020000000000",
      "resource": {
        "resourceType": "PractitionerRole",
        "meta": {
          "profile": [
            "http://nictiz.nl/fhir/StructureDefinition/nl-core-HealthProfessional-PractitionerRole"
          ]
        },
        "practitioner": {
          "reference": "urn:uuid:c33f0d66-6a95-11ec-0000-020000000000",
          "type": "Practitioner",
          "display": "Healthcare professional (person), Peter van Pulver"
        },
        "organization": {
          "reference": "urn:uuid:c33f0dfc-6a95-11ec-0000-020000000000",
          "type": "Organization",
          "display": "Healthcare provider (organization), Huisartsenpraktijk Pulver & Partners"
        },
        "specialty": [
          {
            "coding": [
              {
                "system": "urn:oid:2.16.840.1.113883.2.4.6.7",
                "version": "2020-10-23T00:00:00",
                "code": "0100",
                "display": "Huisartsen, niet nader gespecificeerd"
              }
            ]
          }
        ]
      },
      "request": {
        "method": "POST",
        "url": "PractitionerRole"
      }
    },
    {
      "fullUrl": "urn:uuid:c33f0d66-6a95-11ec-0000-020000000000",
      "resource": {
        "resourceType": "Practitioner",
        "meta": {
          "profile": [
            "http://nictiz.nl/fhir/StructureDefinition/nl-core-HealthProfessional-Practitioner"
          ]
        },
        "identifier": [
          {
            "system": "http://fhir.nl/fhir/NamingSystem/uzi-nr-pers",
            "value": "000001111"
          }
        ],
        "name": [
          {
            "use": "official",
            "text": "Peter van Pulver",
            "family": "van Pulver",
            "_family": {
              "extension": [
                {
                  "url": "http://hl7.org/fhir/StructureDefinition/humanname-own-prefix",
                  "valueString": "van"
                },
                {
                  "url": "http://hl7.org/fhir/StructureDefinition/humanname-own-name",
                  "valueString": "Pulver"
                }
              ]
            },
            "given": [
              "Peter"
            ],
            "_given": [
              {
                "extension": [
                  {
                    "url": "http://hl7.org/fhir/StructureDefinition/iso21090-EN-qualifier",
                    "valueCode": "BR"
                  }
                ]
              }
            ]
          }
        ]
      },
      "request": {
        "method": "POST",
        "url": "Practitioner"
      }
    },
    {
      "fullUrl": "urn:uuid:c33f0dfc-6a95-11ec-0000-020000000000",
      "resource": {
        "resourceType": "Organization",
        "meta": {
          "profile": [
            "http://nictiz.nl/fhir/StructureDefinition/nl-core-HealthcareProvider-Organization"
          ]
        },
        "identifier": [
          {
            "system": "http://fhir.nl/fhir/NamingSystem/ura",
            "value": "00001111"
          }
        ],
        "name": "Huisartsenpraktijk Pulver & Partners",
        "address": [
          {
            "extension": [
              {
                "url": "http://nictiz.nl/fhir/StructureDefinition/ext-AddressInformation.AddressType",
                "valueCodeableConcept": {
                  "coding": [
                    {
                      "system": "http://terminology.hl7.org/CodeSystem/v3-AddressUse",
                      "code": "WP",
                      "display": "Werkadres"
                    }
                  ]
                }
              }
            ],
            "use": "work",
            "line": [
              "Dorpsstraat 1"
            ],
            "_line": [
              {
                "extension": [
                  {
                    "url": "http://hl7.org/fhir/StructureDefinition/iso21090-ADXP-streetName",
                    "valueString": "Dorpsstraat"
                  },
                  {
                    "url": "http://hl7.org/fhir/StructureDefinition/iso21090-ADXP-houseNumber",
                    "valueString": "1"
                  }
                ]
              }
            ],
            "city": "Ons Dorp",
            "postalCode": "1234AA"
          }
        ]
      },
      "request": {
        "method": "POST",
        "url": "Organization"
      }
    },
    {
      "fullUrl": "urn:uuid:c33f0dc0-6a95-11ec-0000-020000000000",
      "resource": {
        "resourceType": "Medication",
        "meta": {
          "profile": [
            "http://nictiz.nl/fhir/StructureDefinition/nl-core-PharmaceuticalProduct"
          ]
        },
        "code": {
          "coding": [
            {
              "system": "urn:oid:2.16.840.1.113883.2.4.4.7",
              "code": "2214350",
              "display": "XARELTO TABLET FILMOMHULD 20MG",
              "userSelected": true
            },
            {
              "system": "urn:oid:2.16.840.1.113883.2.4.4.10",
              "code": "100153",
              "display": "RIVAROXABAN TABLET 20MG"
            },
            {
              "system": "urn:oid:2.16.840.1.113883.2.4.4.1",
              "code": "138363",
              "display": "RIVAROXABAN TABLET 20MG"
            }
          ],
          "text": "XARELTO TABLET FILMOMHULD 20MG"
        }
      },
      "request": {
        "method": "POST",
        "url": "Medication"
      }
    },
    {
      "fullUrl": "urn:uuid:c33f0dde-6a95-11ec-0000-020000000000",
      "resource": {
        "resourceType": "Medication",
        "meta": {
          "profile": [
            "http://nictiz.nl/fhir/StructureDefinition/nl-core-PharmaceuticalProduct"
          ]
        },
        "code": {
          "coding": [
            {
              "system": "urn:oid:2.16.840.1.113883.2.4.4.8",
              "code": "13627163",
              "display": "INDAPAMIDE PCH TABET OMHULD 2,5MG",
              "userSelected": true
            },
            {
              "system": "urn:oid:2.16.840.1.113883.2.4.4.7",
              "code": "695734",
              "display": "INDAPAMIDE PCH TABET OMHULD 2,5MG"
            },
            {
              "system": "urn:oid:2.16.840.1.113883.2.4.4.10",
              "code": "2941",
              "display": "INDAPAMIDE 2,5MG TABLET"
            },
            {
              "system": "urn:oid:2.16.840.1.113883.2.4.4.1",
              "code": "83593",
              "display": "INDAPAMIDE 2,5MG TABLET"
            }
          ],
          "text": "INDAPAMIDE PCH TABET OMHULD 2,5MG"
        }
      },
      "request": {
        "method": "POST",
        "url": "Medication"
      }
    }
  ]
}