{
  "resourceType": "Bundle",
  "id": "mg-mp-mg-tst-TA-Scenarioset1-v20",
  "type": "transaction",
  "entry": [
    {
      "fullUrl": "urn:uuid:c33f1130-6a95-11ec-0000-020000000000",
      "resource": {
        "resourceType": "MedicationDispense",
        "id": "mp-AdmAgr-mp9-MBH200starteindTA",
        "meta": {
          "profile": [
            "http://nictiz.nl/fhir/StructureDefinition/mp-AdministrationAgreement"
          ]
        },
        "extension": [
          {
            "url": "http://nictiz.nl/fhir/StructureDefinition/ext-AdministrationAgreement.AdministrationAgreementDateTime",
            "valueDateTime": "${DATE, T, D, -10}T12:20:00+02:00"
          },
          {
            "url": "http://nictiz.nl/fhir/StructureDefinition/ext-RenderedDosageInstruction",
            "valueString": "Vanaf T - 10 dagen, tot en met T - 5 dagen, 1 maal per dag 1 stuk, Oraal"
          },
          {
            "url": "http://nictiz.nl/fhir/StructureDefinition/ext-TimeInterval.Period",
            "valuePeriod": {
              "start": "${DATE, T, D, -10}T00:00:00+02:00",
              "end": "${DATE, T, D, -5}T23:59:59+02:00"
            }
          },
          {
            "url": "http://nictiz.nl/fhir/StructureDefinition/ext-PharmaceuticalTreatment.Identifier",
            "valueIdentifier": {
              "system": "urn:oid:2.16.840.1.113883.2.4.3.11.999.77.1.1",
              "value": "MBH_200_start_eind"
            }
          }
        ],
        "identifier": [
          {
            "system": "urn:oid:2.16.840.1.113883.2.4.3.11.999.77.422037009.1",
            "value": "MBH_200_start_eind_TA"
          }
        ],
        "status": "unknown",
        "category": {
          "coding": [
            {
              "system": "http://snomed.info/sct",
              "code": "422037009",
              "display": "toedieningsafspraak"
            }
          ]
        },
        "medicationReference": {
          "reference": "urn:uuid:c33f11c6-6a95-11ec-0000-020000000000",
          "type": "Medication",
          "display": "METOCLOPRAMIDE HCL PCH TABLET 10MG"
        },
        "subject": {
          "reference": "urn:uuid:c33f1112-6a95-11ec-0000-020000000000",
          "type": "Patient",
          "display": "Patient, C. XXX_Brugge"
        },
        "performer": [
          {
            "actor": {
              "reference": "urn:uuid:c33f125c-6a95-11ec-0000-020000000000",
              "type": "Organization",
              "display": "Healthcare provider (organization), Apotheek De Gulle Gaper"
            }
          }
        ],
        "authorizingPrescription": [
          {
            "type": "MedicationRequest",
            "identifier": {
              "system": "urn:oid:2.16.840.1.113883.2.4.3.11.999.77.16076005.1",
              "value": "MBH_200_start_eind_MA"
            },
            "display": "relatie naar medicatieafspraak met identificatie: MBH_200_start_eind_MA || 2.16.840.1.113883.2.4.3.11.999.77.16076005.1"
          }
        ],
        "dosageInstruction": [
          {
            "timing": {
              "repeat": {
                "frequency": 1,
                "period": 1,
                "periodUnit": "d"
              }
            },
            "route": {
              "coding": [
                {
                  "system": "urn:oid:2.16.840.1.113883.2.4.4.9",
                  "code": "9",
                  "display": "Oraal"
                }
              ]
            },
            "doseAndRate": [
              {
                "doseQuantity": {
                  "extension": [
                    {
                      "url": "http://hl7.org/fhir/StructureDefinition/iso21090-PQ-translation",
                      "valueQuantity": {
                        "value": 1,
                        "unit": "stuk",
                        "system": "urn:oid:2.16.840.1.113883.2.4.4.1.900.2",
                        "code": "245"
                      }
                    }
                  ],
                  "value": 1,
                  "unit": "stuk",
                  "system": "http://unitsofmeasure.org",
                  "code": "1"
                }
              }
            ]
          }
        ]
      },
      "request": {
        "method": "POST",
        "url": "MedicationDispense"
      }
    },
    {
      "fullUrl": "urn:uuid:c33f114e-6a95-11ec-0000-020000000000",
      "resource": {
        "resourceType": "MedicationDispense",
        "id": "mp-AdmAgr-mp9-MBH200startduurTA",
        "meta": {
          "profile": [
            "http://nictiz.nl/fhir/StructureDefinition/mp-AdministrationAgreement"
          ]
        },
        "extension": [
          {
            "url": "http://nictiz.nl/fhir/StructureDefinition/ext-AdministrationAgreement.AdministrationAgreementDateTime",
            "valueDateTime": "${DATE, T, D, -20}T12:30:00+02:00"
          },
          {
            "url": "http://nictiz.nl/fhir/StructureDefinition/ext-RenderedDosageInstruction",
            "valueString": "Vanaf T - 20 dagen, gedurende 3 weken, 1 maal per dag 1 stuk, oraal"
          },
          {
            "url": "http://nictiz.nl/fhir/StructureDefinition/ext-TimeInterval.Period",
            "valuePeriod": {
              "extension": [
                {
                  "url": "http://nictiz.nl/fhir/StructureDefinition/ext-TimeInterval.Duration",
                  "valueDuration": {
                    "value": 3,
                    "unit": "week",
                    "system": "http://unitsofmeasure.org",
                    "code": "wk"
                  }
                }
              ],
              "start": "${DATE, T, D, -20}T00:00:00+02:00"
            }
          },
          {
            "url": "http://nictiz.nl/fhir/StructureDefinition/ext-PharmaceuticalTreatment.Identifier",
            "valueIdentifier": {
              "system": "urn:oid:2.16.840.1.113883.2.4.3.11.999.77.1.1",
              "value": "MBH_200_start_duur"
            }
          }
        ],
        "identifier": [
          {
            "system": "urn:oid:2.16.840.1.113883.2.4.3.11.999.77.422037009.1",
            "value": "MBH_200_start_duur_TA"
          }
        ],
        "status": "unknown",
        "category": {
          "coding": [
            {
              "system": "http://snomed.info/sct",
              "code": "422037009",
              "display": "toedieningsafspraak"
            }
          ]
        },
        "medicationReference": {
          "reference": "urn:uuid:c33f11e4-6a95-11ec-0000-020000000000",
          "type": "Medication",
          "display": "LISINOPRIL SANDOZ TABLET 10MG"
        },
        "subject": {
          "reference": "urn:uuid:c33f1112-6a95-11ec-0000-020000000000",
          "type": "Patient",
          "display": "Patient, C. XXX_Brugge"
        },
        "performer": [
          {
            "actor": {
              "reference": "urn:uuid:c33f125c-6a95-11ec-0000-020000000000",
              "type": "Organization",
              "display": "Healthcare provider (organization), Apotheek De Gulle Gaper"
            }
          }
        ],
        "authorizingPrescription": [
          {
            "type": "MedicationRequest",
            "identifier": {
              "system": "urn:oid:2.16.840.1.113883.2.4.3.11.999.77.16076005.1",
              "value": "MBH_200_start_duur_MA"
            },
            "display": "relatie naar medicatieafspraak met identificatie: MBH_200_start_duur_MA || 2.16.840.1.113883.2.4.3.11.999.77.16076005.1"
          }
        ],
        "dosageInstruction": [
          {
            "timing": {
              "repeat": {
                "frequency": 1,
                "period": 1,
                "periodUnit": "d"
              }
            },
            "route": {
              "coding": [
                {
                  "system": "urn:oid:2.16.840.1.113883.2.4.4.9",
                  "code": "9",
                  "display": "oraal"
                }
              ]
            },
            "doseAndRate": [
              {
                "doseQuantity": {
                  "extension": [
                    {
                      "url": "http://hl7.org/fhir/StructureDefinition/iso21090-PQ-translation",
                      "valueQuantity": {
                        "value": 1,
                        "unit": "stuk",
                        "system": "urn:oid:2.16.840.1.113883.2.4.4.1.900.2",
                        "code": "245"
                      }
                    }
                  ],
                  "value": 1,
                  "unit": "stuk",
                  "system": "http://unitsofmeasure.org",
                  "code": "1"
                }
              }
            ]
          }
        ]
      },
      "request": {
        "method": "POST",
        "url": "MedicationDispense"
      }
    },
    {
      "fullUrl": "urn:uuid:c33f116c-6a95-11ec-0000-020000000000",
      "resource": {
        "resourceType": "MedicationDispense",
        "id": "mp-AdmAgr-mp9-MBH200chronischTA",
        "meta": {
          "profile": [
            "http://nictiz.nl/fhir/StructureDefinition/mp-AdministrationAgreement"
          ]
        },
        "extension": [
          {
            "url": "http://nictiz.nl/fhir/StructureDefinition/ext-AdministrationAgreement.AdministrationAgreementDateTime",
            "valueDateTime": "${DATE, T, D, -30}T12:32:00+02:00"
          },
          {
            "url": "http://nictiz.nl/fhir/StructureDefinition/ext-RenderedDosageInstruction",
            "valueString": "Vanaf T - 30 dagen, 1 maal per dag 1 stuk, oraal"
          },
          {
            "url": "http://nictiz.nl/fhir/StructureDefinition/ext-TimeInterval.Period",
            "valuePeriod": {
              "start": "${DATE, T, D, -30}T00:00:00+02:00"
            }
          },
          {
            "url": "http://nictiz.nl/fhir/StructureDefinition/ext-PharmaceuticalTreatment.Identifier",
            "valueIdentifier": {
              "system": "urn:oid:2.16.840.1.113883.2.4.3.11.999.77.1.1",
              "value": "MBH_200_chronisch"
            }
          }
        ],
        "identifier": [
          {
            "system": "urn:oid:2.16.840.1.113883.2.4.3.11.999.77.422037009.1",
            "value": "MBH_200_chronisch_TA"
          }
        ],
        "status": "unknown",
        "category": {
          "coding": [
            {
              "system": "http://snomed.info/sct",
              "code": "422037009",
              "display": "toedieningsafspraak"
            }
          ]
        },
        "medicationReference": {
          "reference": "urn:uuid:c33f1202-6a95-11ec-0000-020000000000",
          "type": "Medication",
          "display": "ROTER APC TABLET"
        },
        "subject": {
          "reference": "urn:uuid:c33f1112-6a95-11ec-0000-020000000000",
          "type": "Patient",
          "display": "Patient, C. XXX_Brugge"
        },
        "performer": [
          {
            "actor": {
              "reference": "urn:uuid:c33f125c-6a95-11ec-0000-020000000000",
              "type": "Organization",
              "display": "Healthcare provider (organization), Apotheek De Gulle Gaper"
            }
          }
        ],
        "authorizingPrescription": [
          {
            "type": "MedicationRequest",
            "identifier": {
              "system": "urn:oid:2.16.840.1.113883.2.4.3.11.999.77.16076005.1",
              "value": "MBH_200_chronisch_MA"
            },
            "display": "relatie naar medicatieafspraak met identificatie: MBH_200_chronisch_MA || 2.16.840.1.113883.2.4.3.11.999.77.16076005.1"
          }
        ],
        "dosageInstruction": [
          {
            "timing": {
              "repeat": {
                "frequency": 1,
                "period": 1,
                "periodUnit": "d"
              }
            },
            "route": {
              "coding": [
                {
                  "system": "urn:oid:2.16.840.1.113883.2.4.4.9",
                  "code": "9",
                  "display": "oraal"
                }
              ]
            },
            "doseAndRate": [
              {
                "doseQuantity": {
                  "extension": [
                    {
                      "url": "http://hl7.org/fhir/StructureDefinition/iso21090-PQ-translation",
                      "valueQuantity": {
                        "value": 1,
                        "unit": "stuk",
                        "system": "urn:oid:2.16.840.1.113883.2.4.4.1.900.2",
                        "code": "245"
                      }
                    }
                  ],
                  "value": 1,
                  "unit": "stuk",
                  "system": "http://unitsofmeasure.org",
                  "code": "1"
                }
              }
            ]
          }
        ]
      },
      "request": {
        "method": "POST",
        "url": "MedicationDispense"
      }
    },
    {
      "fullUrl": "urn:uuid:c33f118a-6a95-11ec-0000-020000000000",
      "resource": {
        "resourceType": "MedicationDispense",
        "id": "mp-AdmAgr-mp9-MBH200startduur2TA",
        "meta": {
          "profile": [
            "http://nictiz.nl/fhir/StructureDefinition/mp-AdministrationAgreement"
          ]
        },
        "extension": [
          {
            "url": "http://nictiz.nl/fhir/StructureDefinition/ext-AdministrationAgreement.AdministrationAgreementDateTime",
            "valueDateTime": "${DATE, T, D, -60}T12:30:00+02:00"
          },
          {
            "url": "http://nictiz.nl/fhir/StructureDefinition/ext-RenderedDosageInstruction",
            "valueString": "Vanaf T - 60 dagen, gedurende 28 dagen, 1 maal per dag 1 stuk, oraal"
          },
          {
            "url": "http://nictiz.nl/fhir/StructureDefinition/ext-TimeInterval.Period",
            "valuePeriod": {
              "extension": [
                {
                  "url": "http://nictiz.nl/fhir/StructureDefinition/ext-TimeInterval.Duration",
                  "valueDuration": {
                    "value": 28,
                    "unit": "dag",
                    "system": "http://unitsofmeasure.org",
                    "code": "d"
                  }
                }
              ],
              "start": "${DATE, T, D, -60}T00:00:00+02:00"
            }
          },
          {
            "url": "http://nictiz.nl/fhir/StructureDefinition/ext-PharmaceuticalTreatment.Identifier",
            "valueIdentifier": {
              "system": "urn:oid:2.16.840.1.113883.2.4.3.11.999.77.1.1",
              "value": "MBH_200_start_duur2"
            }
          }
        ],
        "identifier": [
          {
            "system": "urn:oid:2.16.840.1.113883.2.4.3.11.999.77.422037009.1",
            "value": "MBH_200_start_duur2_TA"
          }
        ],
        "status": "unknown",
        "category": {
          "coding": [
            {
              "system": "http://snomed.info/sct",
              "code": "422037009",
              "display": "toedieningsafspraak"
            }
          ]
        },
        "medicationReference": {
          "reference": "urn:uuid:c33f1220-6a95-11ec-0000-020000000000",
          "type": "Medication",
          "display": "PANTOZOL TABLET MSR 20MG"
        },
        "subject": {
          "reference": "urn:uuid:c33f1112-6a95-11ec-0000-020000000000",
          "type": "Patient",
          "display": "Patient, C. XXX_Brugge"
        },
        "performer": [
          {
            "actor": {
              "reference": "urn:uuid:c33f125c-6a95-11ec-0000-020000000000",
              "type": "Organization",
              "display": "Healthcare provider (organization), Apotheek De Gulle Gaper"
            }
          }
        ],
        "authorizingPrescription": [
          {
            "type": "MedicationRequest",
            "identifier": {
              "system": "urn:oid:2.16.840.1.113883.2.4.3.11.999.77.16076005.1",
              "value": "MBH_200_start_duur2_MA"
            },
            "display": "relatie naar medicatieafspraak met identificatie: MBH_200_start_duur2_MA || 2.16.840.1.113883.2.4.3.11.999.77.16076005.1"
          }
        ],
        "dosageInstruction": [
          {
            "timing": {
              "repeat": {
                "frequency": 1,
                "period": 1,
                "periodUnit": "d"
              }
            },
            "route": {
              "coding": [
                {
                  "system": "urn:oid:2.16.840.1.113883.2.4.4.9",
                  "code": "9",
                  "display": "oraal"
                }
              ]
            },
            "doseAndRate": [
              {
                "doseQuantity": {
                  "extension": [
                    {
                      "url": "http://hl7.org/fhir/StructureDefinition/iso21090-PQ-translation",
                      "valueQuantity": {
                        "value": 1,
                        "unit": "stuk",
                        "system": "urn:oid:2.16.840.1.113883.2.4.4.1.900.2",
                        "code": "245"
                      }
                    }
                  ],
                  "value": 1,
                  "unit": "stuk",
                  "system": "http://unitsofmeasure.org",
                  "code": "1"
                }
              }
            ]
          }
        ]
      },
      "request": {
        "method": "POST",
        "url": "MedicationDispense"
      }
    },
    {
      "fullUrl": "urn:uuid:c33f11a8-6a95-11ec-0000-020000000000",
      "resource": {
        "resourceType": "MedicationDispense",
        "id": "mp-AdmAgr-mp9-MBH200dosisstuksTA",
        "meta": {
          "profile": [
            "http://nictiz.nl/fhir/StructureDefinition/mp-AdministrationAgreement"
          ]
        },
        "extension": [
          {
            "url": "http://nictiz.nl/fhir/StructureDefinition/ext-AdministrationAgreement.AdministrationAgreementDateTime",
            "valueDateTime": "${DATE, T, D, -130}T12:35:00+02:00"
          },
          {
            "url": "http://nictiz.nl/fhir/StructureDefinition/ext-RenderedDosageInstruction",
            "valueString": "Vanaf T - 130 dagen, tot en met T - 101 dagen, 2 maal per dag 1 dosis, inhalatie"
          },
          {
            "url": "http://nictiz.nl/fhir/StructureDefinition/ext-TimeInterval.Period",
            "valuePeriod": {
              "start": "${DATE, T, D, -130}T00:00:00+02:00",
              "end": "${DATE, T, D, -101}T23:59:59+02:00"
            }
          },
          {
            "url": "http://nictiz.nl/fhir/StructureDefinition/ext-PharmaceuticalTreatment.Identifier",
            "valueIdentifier": {
              "system": "urn:oid:2.16.840.1.113883.2.4.3.11.999.77.1.1",
              "value": "MBH_200_dosis_stuks"
            }
          }
        ],
        "identifier": [
          {
            "system": "urn:oid:2.16.840.1.113883.2.4.3.11.999.77.422037009.1",
            "value": "MBH_200_dosis_stuks_TA"
          }
        ],
        "status": "unknown",
        "category": {
          "coding": [
            {
              "system": "http://snomed.info/sct",
              "code": "422037009",
              "display": "toedieningsafspraak"
            }
          ]
        },
        "medicationReference": {
          "reference": "urn:uuid:c33f123e-6a95-11ec-0000-020000000000",
          "type": "Medication",
          "display": "FLIXOTIDE DISKUS INHPDR 100MCG 60DO"
        },
        "subject": {
          "reference": "urn:uuid:c33f1112-6a95-11ec-0000-020000000000",
          "type": "Patient",
          "display": "Patient, C. XXX_Brugge"
        },
        "performer": [
          {
            "actor": {
              "reference": "urn:uuid:c33f125c-6a95-11ec-0000-020000000000",
              "type": "Organization",
              "display": "Healthcare provider (organization), Apotheek De Gulle Gaper"
            }
          }
        ],
        "authorizingPrescription": [
          {
            "type": "MedicationRequest",
            "identifier": {
              "system": "urn:oid:2.16.840.1.113883.2.4.3.11.999.77.16076005.1",
              "value": "MBH_200_dosis_stuks_MA"
            },
            "display": "relatie naar medicatieafspraak met identificatie: MBH_200_dosis_stuks_MA || 2.16.840.1.113883.2.4.3.11.999.77.16076005.1"
          }
        ],
        "dosageInstruction": [
          {
            "timing": {
              "repeat": {
                "frequency": 2,
                "period": 1,
                "periodUnit": "d"
              }
            },
            "route": {
              "coding": [
                {
                  "system": "urn:oid:2.16.840.1.113883.2.4.4.9",
                  "code": "62",
                  "display": "inhalatie"
                }
              ]
            },
            "doseAndRate": [
              {
                "doseQuantity": {
                  "extension": [
                    {
                      "url": "http://hl7.org/fhir/StructureDefinition/iso21090-PQ-translation",
                      "valueQuantity": {
                        "value": 1,
                        "unit": "dosis",
                        "system": "urn:oid:2.16.840.1.113883.2.4.4.1.900.2",
                        "code": "208"
                      }
                    }
                  ],
                  "value": 1,
                  "unit": "dosis",
                  "system": "http://unitsofmeasure.org",
                  "code": "1"
                }
              }
            ]
          }
        ]
      },
      "request": {
        "method": "POST",
        "url": "MedicationDispense"
      }
    },
    {
      "fullUrl": "urn:uuid:c33f1112-6a95-11ec-0000-020000000000",
      "resource": {
        "resourceType": "Patient",
        "id": "nl-core-Patient-mp9-C-XXX-Brugge",
        "meta": {
          "profile": [
            "http://nictiz.nl/fhir/StructureDefinition/nl-core-Patient"
          ]
        },
        "identifier": [
          {
            "system": "http://fhir.nl/fhir/NamingSystem/bsn",
            "value": "999900419"
          }
        ],
        "name": [
          {
            "extension": [
              {
                "url": "http://hl7.org/fhir/StructureDefinition/humanname-assembly-order",
                "valueCode": "NL1"
              }
            ],
            "use": "official",
            "text": "C. XXX_Brugge",
            "family": "XXX_Brugge",
            "_family": {
              "extension": [
                {
                  "url": "http://hl7.org/fhir/StructureDefinition/humanname-own-name",
                  "valueString": "XXX_Brugge"
                }
              ]
            },
            "given": [
              "C."
            ],
            "_given": [
              {
                "extension": [
                  {
                    "url": "http://hl7.org/fhir/StructureDefinition/iso21090-EN-qualifier",
                    "valueCode": "IN"
                  }
                ]
              }
            ]
          }
        ],
        "gender": "male",
        "_gender": {
          "extension": [
            {
              "url": "http://nictiz.nl/fhir/StructureDefinition/ext-CodeSpecification",
              "valueCodeableConcept": {
                "coding": [
                  {
                    "system": "http://terminology.hl7.org/CodeSystem/v3-AdministrativeGender",
                    "code": "M",
                    "display": "Man"
                  }
                ]
              }
            }
          ]
        },
        "birthDate": "1963-10-16"
      },
      "request": {
        "method": "POST",
        "url": "Patient"
      }
    },
    {
      "fullUrl": "urn:uuid:c33f125c-6a95-11ec-0000-020000000000",
      "resource": {
        "resourceType": "Organization",
        "id": "nl-core-HPrv-Org-mp9-2165281100733-01236578",
        "meta": {
          "profile": [
            "http://nictiz.nl/fhir/StructureDefinition/nl-core-HealthcareProvider-Organization"
          ]
        },
        "identifier": [
          {
            "system": "http://fhir.nl/fhir/NamingSystem/ura",
            "value": "01236578"
          }
        ],
        "name": "Apotheek De Gulle Gaper"
      },
      "request": {
        "method": "POST",
        "url": "Organization"
      }
    },
    {
      "fullUrl": "urn:uuid:c33f11c6-6a95-11ec-0000-020000000000",
      "resource": {
        "resourceType": "Medication",
        "id": "nl-core-PhPrd-mp9-21684011138832447-560308",
        "meta": {
          "profile": [
            "http://nictiz.nl/fhir/StructureDefinition/nl-core-PharmaceuticalProduct"
          ]
        },
        "code": {
          "coding": [
            {
              "system": "urn:oid:2.16.840.1.113883.2.4.4.7",
              "code": "560308",
              "display": "METOCLOPRAMIDE HCL PCH TABLET 10MG",
              "userSelected": true
            },
            {
              "system": "urn:oid:2.16.840.1.113883.2.4.4.10",
              "code": "6947",
              "display": "METOCLOPRAMIDE TABLET 10MG"
            },
            {
              "system": "urn:oid:2.16.840.1.113883.2.4.4.1",
              "code": "19429",
              "display": "METOCLOPRAMIDE TABLET 10MG"
            }
          ],
          "text": "METOCLOPRAMIDE HCL PCH TABLET 10MG"
        }
      },
      "request": {
        "method": "POST",
        "url": "Medication"
      }
    },
    {
      "fullUrl": "urn:uuid:c33f11e4-6a95-11ec-0000-020000000000",
      "resource": {
        "resourceType": "Medication",
        "id": "nl-core-PhPrd-mp9-21684011138832447-1506773",
        "meta": {
          "profile": [
            "http://nictiz.nl/fhir/StructureDefinition/nl-core-PharmaceuticalProduct"
          ]
        },
        "code": {
          "coding": [
            {
              "system": "urn:oid:2.16.840.1.113883.2.4.4.7",
              "code": "1506773",
              "display": "LISINOPRIL SANDOZ TABLET 10MG",
              "userSelected": true
            },
            {
              "system": "urn:oid:2.16.840.1.113883.2.4.4.10",
              "code": "26638",
              "display": "LISINOPRIL 10MG TABLET"
            },
            {
              "system": "urn:oid:2.16.840.1.113883.2.4.4.1",
              "code": "71587",
              "display": "LISINOPRIL 10MG TABLET"
            }
          ],
          "text": "LISINOPRIL SANDOZ TABLET 10MG"
        }
      },
      "request": {
        "method": "POST",
        "url": "Medication"
      }
    },
    {
      "fullUrl": "urn:uuid:c33f1202-6a95-11ec-0000-020000000000",
      "resource": {
        "resourceType": "Medication",
        "id": "nl-core-PhPrd-mp9-21684011138832447-202185",
        "meta": {
          "profile": [
            "http://nictiz.nl/fhir/StructureDefinition/nl-core-PharmaceuticalProduct"
          ]
        },
        "code": {
          "coding": [
            {
              "system": "urn:oid:2.16.840.1.113883.2.4.4.7",
              "code": "202185",
              "display": "ROTER APC TABLET",
              "userSelected": true
            },
            {
              "system": "urn:oid:2.16.840.1.113883.2.4.4.10",
              "code": "3891",
              "display": "ACETYLSALICYLZUUR/PARACETAMOL/COF TAB 250/250/50MG"
            },
            {
              "system": "urn:oid:2.16.840.1.113883.2.4.4.1",
              "code": "61433",
              "display": "ACETYLSALICYLZUUR/PARACETAMOL/COF TAB 250/250/50MG"
            }
          ],
          "text": "ROTER APC TABLET"
        }
      },
      "request": {
        "method": "POST",
        "url": "Medication"
      }
    },
    {
      "fullUrl": "urn:uuid:c33f1220-6a95-11ec-0000-020000000000",
      "resource": {
        "resourceType": "Medication",
        "id": "nl-core-PhPrd-mp9-21684011138832447-1163094",
        "meta": {
          "profile": [
            "http://nictiz.nl/fhir/StructureDefinition/nl-core-PharmaceuticalProduct"
          ]
        },
        "code": {
          "coding": [
            {
              "system": "urn:oid:2.16.840.1.113883.2.4.4.7",
              "code": "1163094",
              "display": "PANTOZOL TABLET MSR 20MG",
              "userSelected": true
            },
            {
              "system": "urn:oid:2.16.840.1.113883.2.4.4.10",
              "code": "52272",
              "display": "PANTOPRAZOL TABLET MSR 20MG"
            },
            {
              "system": "urn:oid:2.16.840.1.113883.2.4.4.1",
              "code": "106275",
              "display": "PANTOPRAZOL TABLET MSR 20MG"
            }
          ],
          "text": "PANTOZOL TABLET MSR 20MG"
        }
      },
      "request": {
        "method": "POST",
        "url": "Medication"
      }
    },
    {
      "fullUrl": "urn:uuid:c33f123e-6a95-11ec-0000-020000000000",
      "resource": {
        "resourceType": "Medication",
        "id": "nl-core-PhPrd-mp9-21684011138832447-1029754",
        "meta": {
          "profile": [
            "http://nictiz.nl/fhir/StructureDefinition/nl-core-PharmaceuticalProduct"
          ]
        },
        "code": {
          "coding": [
            {
              "system": "urn:oid:2.16.840.1.113883.2.4.4.7",
              "code": "1029754",
              "display": "FLIXOTIDE DISKUS INHPDR 100MCG 60DO",
              "userSelected": true
            },
            {
              "system": "urn:oid:2.16.840.1.113883.2.4.4.10",
              "code": "45624",
              "display": "FLUTICASON INHALATIEPOEDER 100UG/DO 60DO DISKUS"
            },
            {
              "system": "urn:oid:2.16.840.1.113883.2.4.4.1",
              "code": "92487",
              "display": "FLUTICASON INHALATIEPOEDER 100UG/DO"
            }
          ],
          "text": "FLIXOTIDE DISKUS INHPDR 100MCG 60DO"
        }
      },
      "request": {
        "method": "POST",
        "url": "Medication"
      }
    }
  ]
}