{
  "resourceType": "Bundle",
  "id": "mg-mp-mg-tst-MVE-Scenarioset7-v20",
  "type": "transaction",
  "entry": [
    {
      "fullUrl": "urn:uuid:c33f2152-6a95-11ec-0000-020000000000",
      "resource": {
        "resourceType": "MedicationDispense",
        "meta": {
          "profile": [
            "http://nictiz.nl/fhir/StructureDefinition/mp-MedicationDispense"
          ]
        },
        "extension": [
          {
            "url": "http://nictiz.nl/fhir/StructureDefinition/ext-PharmaceuticalTreatment.Identifier",
            "valueIdentifier": {
              "system": "urn:oid:2.16.840.1.113883.2.4.3.11.999.77.1.1",
              "value": "MBH_200_magistraalalleingredienten"
            }
          }
        ],
        "identifier": [
          {
            "system": "urn:oid:2.16.840.1.113883.2.4.3.11.999.77.373784005.1",
            "value": "MBH_200_magistraalalleingredienten_MVE"
          }
        ],
        "status": "completed",
        "category": {
          "coding": [
            {
              "system": "http://snomed.info/sct",
              "code": "373784005",
              "display": "verstrekken van medicatie"
            }
          ]
        },
        "medicationReference": {
          "reference": "urn:uuid:c33f21ac-6a95-11ec-0000-020000000000",
          "type": "Medication",
          "display": "overig"
        },
        "subject": {
          "reference": "urn:uuid:c33f2134-6a95-11ec-0000-020000000000",
          "type": "Patient",
          "display": "Patient, M. van de XXX_Rambaran Mishre"
        },
        "performer": [
          {
            "actor": {
              "reference": "urn:uuid:c33f2206-6a95-11ec-0000-020000000000",
              "type": "Organization",
              "display": "Healthcare provider (organization), Apotheek De Gulle Gaper"
            }
          }
        ],
        "authorizingPrescription": [
          {
            "type": "MedicationRequest",
            "identifier": {
              "system": "urn:oid:2.16.840.1.113883.2.4.3.11.999.77.52711000146108.1",
              "value": "MBH_200_magistraalalleingredienten_VV"
            },
            "display": "relatie naar verstrekkingsverzoek met identificatie: MBH_200_magistraalalleingredienten_VV || 2.16.840.1.113883.2.4.3.11.999.77.52711000146108.1"
          }
        ],
        "quantity": {
          "extension": [
            {
              "url": "http://hl7.org/fhir/StructureDefinition/iso21090-PQ-translation",
              "valueQuantity": {
                "value": 100,
                "unit": "milliliter",
                "system": "urn:oid:2.16.840.1.113883.2.4.4.1.900.2",
                "code": "233"
              }
            }
          ],
          "value": 100,
          "unit": "milliliter",
          "system": "http://unitsofmeasure.org",
          "code": "ml"
        },
        "whenHandedOver": "${DATE, T, D, +0}T13:00:00+02:00"
      },
      "request": {
        "method": "POST",
        "url": "MedicationDispense"
      }
    },
    {
      "fullUrl": "urn:uuid:c33f2170-6a95-11ec-0000-020000000000",
      "resource": {
        "resourceType": "MedicationDispense",
        "meta": {
          "profile": [
            "http://nictiz.nl/fhir/StructureDefinition/mp-MedicationDispense"
          ]
        },
        "extension": [
          {
            "url": "http://nictiz.nl/fhir/StructureDefinition/ext-PharmaceuticalTreatment.Identifier",
            "valueIdentifier": {
              "system": "urn:oid:2.16.840.1.113883.2.4.3.11.999.77.1.1",
              "value": "MBH_200_magistraalactieveingredient"
            }
          }
        ],
        "identifier": [
          {
            "system": "urn:oid:2.16.840.1.113883.2.4.3.11.999.77.373784005.1",
            "value": "MBH_200_magistraalactieveingredient_MVE"
          }
        ],
        "status": "completed",
        "category": {
          "coding": [
            {
              "system": "http://snomed.info/sct",
              "code": "373784005",
              "display": "verstrekken van medicatie"
            }
          ]
        },
        "medicationReference": {
          "reference": "urn:uuid:c33f21ca-6a95-11ec-0000-020000000000",
          "type": "Medication",
          "display": "overig"
        },
        "subject": {
          "reference": "urn:uuid:c33f2134-6a95-11ec-0000-020000000000",
          "type": "Patient",
          "display": "Patient, M. van de XXX_Rambaran Mishre"
        },
        "performer": [
          {
            "actor": {
              "reference": "urn:uuid:c33f2206-6a95-11ec-0000-020000000000",
              "type": "Organization",
              "display": "Healthcare provider (organization), Apotheek De Gulle Gaper"
            }
          }
        ],
        "authorizingPrescription": [
          {
            "type": "MedicationRequest",
            "identifier": {
              "system": "urn:oid:2.16.840.1.113883.2.4.3.11.999.77.52711000146108.1",
              "value": "MBH_200_magistraalactieveingredient_VV"
            },
            "display": "relatie naar verstrekkingsverzoek met identificatie: MBH_200_magistraalactieveingredient_VV || 2.16.840.1.113883.2.4.3.11.999.77.52711000146108.1"
          }
        ],
        "quantity": {
          "extension": [
            {
              "url": "http://hl7.org/fhir/StructureDefinition/iso21090-PQ-translation",
              "valueQuantity": {
                "value": 100,
                "unit": "gram",
                "system": "urn:oid:2.16.840.1.113883.2.4.4.1.900.2",
                "code": "215"
              }
            }
          ],
          "value": 100,
          "unit": "gram",
          "system": "http://unitsofmeasure.org",
          "code": "g"
        },
        "whenHandedOver": "${DATE, T, D, +0}T13:05:00+02:00"
      },
      "request": {
        "method": "POST",
        "url": "MedicationDispense"
      }
    },
    {
      "fullUrl": "urn:uuid:c33f218e-6a95-11ec-0000-020000000000",
      "resource": {
        "resourceType": "MedicationDispense",
        "meta": {
          "profile": [
            "http://nictiz.nl/fhir/StructureDefinition/mp-MedicationDispense"
          ]
        },
        "extension": [
          {
            "url": "http://nictiz.nl/fhir/StructureDefinition/ext-PharmaceuticalTreatment.Identifier",
            "valueIdentifier": {
              "system": "urn:oid:2.16.840.1.113883.2.4.3.11.999.77.1.1",
              "value": "MBH_200_magistraal90miljoennr"
            }
          }
        ],
        "identifier": [
          {
            "system": "urn:oid:2.16.840.1.113883.2.4.3.11.999.77.373784005.1",
            "value": "MBH_200_magistraal90miljoennr_MVE"
          }
        ],
        "status": "completed",
        "category": {
          "coding": [
            {
              "system": "http://snomed.info/sct",
              "code": "373784005",
              "display": "verstrekken van medicatie"
            }
          ]
        },
        "medicationReference": {
          "reference": "urn:uuid:c33f21e8-6a95-11ec-0000-020000000000",
          "type": "Medication",
          "display": "Eigen artikel: ureumzalf"
        },
        "subject": {
          "reference": "urn:uuid:c33f2134-6a95-11ec-0000-020000000000",
          "type": "Patient",
          "display": "Patient, M. van de XXX_Rambaran Mishre"
        },
        "performer": [
          {
            "actor": {
              "reference": "urn:uuid:c33f2206-6a95-11ec-0000-020000000000",
              "type": "Organization",
              "display": "Healthcare provider (organization), Apotheek De Gulle Gaper"
            }
          }
        ],
        "authorizingPrescription": [
          {
            "type": "MedicationRequest",
            "identifier": {
              "system": "urn:oid:2.16.840.1.113883.2.4.3.11.999.77.52711000146108.1",
              "value": "MBH_200_magistraal90miljoennr_VV"
            },
            "display": "relatie naar verstrekkingsverzoek met identificatie: MBH_200_magistraal90miljoennr_VV || 2.16.840.1.113883.2.4.3.11.999.77.52711000146108.1"
          }
        ],
        "quantity": {
          "extension": [
            {
              "url": "http://hl7.org/fhir/StructureDefinition/iso21090-PQ-translation",
              "valueQuantity": {
                "value": 100,
                "unit": "gram",
                "system": "urn:oid:2.16.840.1.113883.2.4.4.1.900.2",
                "code": "215"
              }
            }
          ],
          "value": 100,
          "unit": "gram",
          "system": "http://unitsofmeasure.org",
          "code": "g"
        },
        "whenHandedOver": "${DATE, T, D, +0}T13:08:00+02:00"
      },
      "request": {
        "method": "POST",
        "url": "MedicationDispense"
      }
    },
    {
      "fullUrl": "urn:uuid:c33f2134-6a95-11ec-0000-020000000000",
      "resource": {
        "resourceType": "Patient",
        "meta": {
          "profile": [
            "http://nictiz.nl/fhir/StructureDefinition/nl-core-Patient"
          ]
        },
        "identifier": [
          {
            "system": "http://fhir.nl/fhir/NamingSystem/bsn",
            "value": "999900948"
          }
        ],
        "name": [
          {
            "extension": [
              {
                "url": "http://hl7.org/fhir/StructureDefinition/humanname-assembly-order",
                "valueCode": "NL1"
              }
            ],
            "use": "official",
            "text": "M. van de XXX_Rambaran Mishre",
            "family": "van de XXX_Rambaran Mishre",
            "_family": {
              "extension": [
                {
                  "url": "http://hl7.org/fhir/StructureDefinition/humanname-own-prefix",
                  "valueString": "van de"
                },
                {
                  "url": "http://hl7.org/fhir/StructureDefinition/humanname-own-name",
                  "valueString": "XXX_Rambaran Mishre"
                }
              ]
            },
            "given": [
              "M."
            ],
            "_given": [
              {
                "extension": [
                  {
                    "url": "http://hl7.org/fhir/StructureDefinition/iso21090-EN-qualifier",
                    "valueCode": "IN"
                  }
                ]
              }
            ]
          }
        ],
        "gender": "male",
        "_gender": {
          "extension": [
            {
              "url": "http://nictiz.nl/fhir/StructureDefinition/ext-CodeSpecification",
              "valueCodeableConcept": {
                "coding": [
                  {
                    "system": "http://terminology.hl7.org/CodeSystem/v3-AdministrativeGender",
                    "code": "M",
                    "display": "Man"
                  }
                ]
              }
            }
          ]
        },
        "birthDate": "1985-11-08"
      },
      "request": {
        "method": "POST",
        "url": "Patient"
      }
    },
    {
      "fullUrl": "urn:uuid:c33f2206-6a95-11ec-0000-020000000000",
      "resource": {
        "resourceType": "Organization",
        "meta": {
          "profile": [
            "http://nictiz.nl/fhir/StructureDefinition/nl-core-HealthcareProvider-Organization"
          ]
        },
        "identifier": [
          {
            "system": "http://fhir.nl/fhir/NamingSystem/ura",
            "value": "01236578"
          }
        ],
        "name": "Apotheek De Gulle Gaper"
      },
      "request": {
        "method": "POST",
        "url": "Organization"
      }
    },
    {
      "fullUrl": "urn:uuid:c33f21ac-6a95-11ec-0000-020000000000",
      "resource": {
        "resourceType": "Medication",
        "meta": {
          "profile": [
            "http://nictiz.nl/fhir/StructureDefinition/nl-core-PharmaceuticalProduct"
          ]
        },
        "extension": [
          {
            "url": "http://nictiz.nl/fhir/StructureDefinition/ext-PharmaceuticalProduct.Description",
            "valueString": "Titel: Ureum 10% in eucerine cum aqua 100gr           Regel: UREUM 10gr           Regel: EUCERINE MET WATER FAGRON ad 100gr"
          }
        ],
        "code": {
          "coding": [
            {
              "system": "http://terminology.hl7.org/CodeSystem/v3-NullFlavor",
              "code": "OTH",
              "display": "overig"
            }
          ],
          "text": "Ureum 10% in eucerine cum aqua 100gr"
        },
        "ingredient": [
          {
            "itemCodeableConcept": {
              "coding": [
                {
                  "system": "urn:oid:2.16.840.1.113883.2.4.4.7",
                  "code": "1042467",
                  "display": "UREUM ZALF 10% FAGRON"
                }
              ]
            },
            "strength": {
              "numerator": {
                "extension": [
                  {
                    "url": "http://hl7.org/fhir/StructureDefinition/iso21090-PQ-translation",
                    "valueQuantity": {
                      "value": 10,
                      "unit": "gram",
                      "system": "urn:oid:2.16.840.1.113883.2.4.4.1.900.2",
                      "code": "215"
                    }
                  }
                ],
                "value": 10,
                "unit": "gram",
                "system": "http://unitsofmeasure.org",
                "code": "g"
              },
              "denominator": {
                "extension": [
                  {
                    "url": "http://hl7.org/fhir/StructureDefinition/iso21090-PQ-translation",
                    "valueQuantity": {
                      "value": 100,
                      "unit": "gram",
                      "system": "urn:oid:2.16.840.1.113883.2.4.4.1.900.2",
                      "code": "215"
                    }
                  }
                ],
                "value": 100,
                "unit": "gram",
                "system": "http://unitsofmeasure.org",
                "code": "g"
              }
            }
          },
          {
            "itemCodeableConcept": {
              "coding": [
                {
                  "system": "urn:oid:2.16.840.1.113883.2.4.4.7",
                  "code": "1516981",
                  "display": "EUCERINE MET WATER FAGRON"
                }
              ]
            },
            "strength": {
              "numerator": {
                "extension": [
                  {
                    "url": "http://hl7.org/fhir/StructureDefinition/iso21090-PQ-translation",
                    "valueQuantity": {
                      "value": 90,
                      "unit": "gram",
                      "system": "urn:oid:2.16.840.1.113883.2.4.4.1.900.2",
                      "code": "215"
                    }
                  }
                ],
                "value": 90,
                "unit": "gram",
                "system": "http://unitsofmeasure.org",
                "code": "g"
              },
              "denominator": {
                "extension": [
                  {
                    "url": "http://hl7.org/fhir/StructureDefinition/iso21090-PQ-translation",
                    "valueQuantity": {
                      "value": 100,
                      "unit": "gram",
                      "system": "urn:oid:2.16.840.1.113883.2.4.4.1.900.2",
                      "code": "215"
                    }
                  }
                ],
                "value": 100,
                "unit": "gram",
                "system": "http://unitsofmeasure.org",
                "code": "g"
              }
            }
          }
        ]
      },
      "request": {
        "method": "POST",
        "url": "Medication"
      }
    },
    {
      "fullUrl": "urn:uuid:c33f21ca-6a95-11ec-0000-020000000000",
      "resource": {
        "resourceType": "Medication",
        "meta": {
          "profile": [
            "http://nictiz.nl/fhir/StructureDefinition/nl-core-PharmaceuticalProduct"
          ]
        },
        "extension": [
          {
            "url": "http://nictiz.nl/fhir/StructureDefinition/ext-PharmaceuticalProduct.Description",
            "valueString": "Titel: Vaseline 20% in cetomacrogolcrème FNA Regel 1: cetomacrogolcreme 80 gr"
          }
        ],
        "code": {
          "coding": [
            {
              "system": "http://terminology.hl7.org/CodeSystem/v3-NullFlavor",
              "code": "OTH",
              "display": "overig"
            }
          ],
          "text": "Vaseline 20% in cetomacrogolcrème FNA"
        },
        "ingredient": [
          {
            "itemCodeableConcept": {
              "coding": [
                {
                  "system": "urn:oid:2.16.840.1.113883.2.4.4.7",
                  "code": "457590",
                  "display": "CETOMACROGOLCREME FNA"
                }
              ]
            },
            "strength": {
              "numerator": {
                "extension": [
                  {
                    "url": "http://hl7.org/fhir/StructureDefinition/iso21090-PQ-translation",
                    "valueQuantity": {
                      "value": 80,
                      "unit": "gram",
                      "system": "urn:oid:2.16.840.1.113883.2.4.4.1.900.2",
                      "code": "215"
                    }
                  }
                ],
                "value": 80,
                "unit": "gram",
                "system": "http://unitsofmeasure.org",
                "code": "g"
              },
              "denominator": {
                "extension": [
                  {
                    "url": "http://hl7.org/fhir/StructureDefinition/iso21090-PQ-translation",
                    "valueQuantity": {
                      "value": 100,
                      "unit": "gram",
                      "system": "urn:oid:2.16.840.1.113883.2.4.4.1.900.2",
                      "code": "215"
                    }
                  }
                ],
                "value": 100,
                "unit": "gram",
                "system": "http://unitsofmeasure.org",
                "code": "g"
              }
            }
          }
        ]
      },
      "request": {
        "method": "POST",
        "url": "Medication"
      }
    },
    {
      "fullUrl": "urn:uuid:c33f21e8-6a95-11ec-0000-020000000000",
      "resource": {
        "resourceType": "Medication",
        "meta": {
          "profile": [
            "http://nictiz.nl/fhir/StructureDefinition/nl-core-PharmaceuticalProduct"
          ]
        },
        "extension": [
          {
            "url": "http://nictiz.nl/fhir/StructureDefinition/ext-PharmaceuticalProduct.Description",
            "valueString": "Titel: Ureum 10% in eucerine cum aqua 100gr           Regel: UREUM 10gr           Regel: EUCERINE MET WATER FAGRON ad 100gr"
          }
        ],
        "code": {
          "coding": [
            {
              "system": "urn:oid:2.16.840.1.113883.2.4.3.11.9999.77.90000000.1.1111",
              "code": "90000001",
              "display": "Eigen artikel: ureumzalf"
            }
          ],
          "text": "Ureum 10% in eucerine cum aqua 100gr"
        },
        "ingredient": [
          {
            "itemCodeableConcept": {
              "coding": [
                {
                  "system": "urn:oid:2.16.840.1.113883.2.4.4.7",
                  "code": "1042467",
                  "display": "UREUM ZALF 10% FAGRON"
                }
              ]
            },
            "strength": {
              "numerator": {
                "extension": [
                  {
                    "url": "http://hl7.org/fhir/StructureDefinition/iso21090-PQ-translation",
                    "valueQuantity": {
                      "value": 10,
                      "unit": "gram",
                      "system": "urn:oid:2.16.840.1.113883.2.4.4.1.900.2",
                      "code": "215"
                    }
                  }
                ],
                "value": 10,
                "unit": "gram",
                "system": "http://unitsofmeasure.org",
                "code": "g"
              },
              "denominator": {
                "extension": [
                  {
                    "url": "http://hl7.org/fhir/StructureDefinition/iso21090-PQ-translation",
                    "valueQuantity": {
                      "value": 100,
                      "unit": "gram",
                      "system": "urn:oid:2.16.840.1.113883.2.4.4.1.900.2",
                      "code": "215"
                    }
                  }
                ],
                "value": 100,
                "unit": "gram",
                "system": "http://unitsofmeasure.org",
                "code": "g"
              }
            }
          }
        ]
      },
      "request": {
        "method": "POST",
        "url": "Medication"
      }
    }
  ]
}