<Bundle xmlns="http://hl7.org/fhir">
  <id value="mg-mp-mg-tst-MGB-Scenarioset6-v20"/>
  <type value="transaction"/>
  <entry>
    <fullUrl value="urn:uuid:c33f050a-6a95-11ec-0000-020000000000"/>
    <resource>
      <MedicationStatement>
        <meta>
          <profile value="http://nictiz.nl/fhir/StructureDefinition/mp-MedicationUse2"/>
        </meta>
        <text>
          <status value="extensions"/>
          <div xmlns="http://www.w3.org/1999/xhtml">
            <table>
              <caption>MedicationStatement. Subject: Patient, M. XXX_Rambaldo. Id: MBH_200_variabelefrequentie_MGB (urn:oid:2.16.840.1.113883.2.4.3.11.999.77.6.1), Categorie: <span title="bevinding betreffende gedrag met betrekking tot medicatieregime (422979000 - SNOMED CT)">bevinding betreffende gedrag met betrekking tot medicatieregime</span>, Status: actief</caption>
              <tbody>
                <tr>
                  <th>Medicatie</th>
                  <td>MIZOLASTINE TABLET MGA 10MG</td>
                </tr>
                <tr>
                  <th>Datum/tijd</th>
                  <td>${DATE, T, D, +0}T00:00:00+02:00 - ${DATE, T, D, +16}T23:59:59+02:00</td>
                </tr>
                <tr>
                  <th>Informant</th>
                  <td>${DATE, T, D, +16}T16:00:00+02:00 - Patient, M. XXX_Rambaldo</td>
                </tr>
                <tr>
                  <th>Ondersteunende informatie</th>
                  <td>
                    <ul>
                      <li>relatie naar medicatieafspraak (Id: MBH_200_variabelefrequentie_MA (urn:oid:2.16.840.1.113883.2.4.3.11.999.77.16076005.1))</li>
                      <li>relatie naar toedieningsafspraak (Id: MBH_200_variabelefrequentie_TA (urn:oid:2.16.840.1.113883.2.4.3.11.999.77.422037009.1))</li>
                    </ul>
                  </td>
                </tr>
                <tr>
                  <th>Dosering</th>
                  <td>
                    <div>Timing: <div>eenmalig, max frequentie 2 maal per dag</div>
                    </div>
                    <div>Toedieningsweg: <span title="Oraal (9 - G-Standaard thesaurus subtabel 0007)">Oraal</span>
                    </div>
                    <div>Dosering: doseAndRate TODO</div>
                  </td>
                </tr>
              </tbody>
            </table>
          </div>
        </text>
        <extension url="http://nictiz.nl/fhir/StructureDefinition/ext-RenderedDosageInstruction">
          <valueString value="Vanaf T, tot en met T + 16 dagen, 1 à 2 maal per dag 1 stuk, Oraal"/>
        </extension>
        <extension url="http://nictiz.nl/fhir/StructureDefinition/ext-MedicationUse2.Prescriber">
          <valueReference>
            <reference value="urn:uuid:c33f04ce-6a95-11ec-0000-020000000000"/>
            <type value="PractitionerRole"/>
            <display value="Healthcare professional (role), Peter van Pulver, Huisartsen, niet nader gespecificeerd"/>
          </valueReference>
        </extension>
        <extension url="http://nictiz.nl/fhir/StructureDefinition/ext-AsAgreedIndicator">
          <valueBoolean value="true"/>
        </extension>
        <extension url="http://nictiz.nl/fhir/StructureDefinition/ext-PharmaceuticalTreatment.Identifier">
          <valueIdentifier>
            <system value="urn:oid:2.16.840.1.113883.2.4.3.11.999.77.1.1"/>
            <value value="MBH_200_variabelefrequentie"/>
          </valueIdentifier>
        </extension>
        <extension url="http://nictiz.nl/fhir/StructureDefinition/ext-MedicationUse2.Author">
          <valueReference>
            <reference value="urn:uuid:c33f04ce-6a95-11ec-0000-020000000000"/>
            <type value="PractitionerRole"/>
            <display value="Healthcare professional (role), Peter van Pulver, Huisartsen, niet nader gespecificeerd"/>
          </valueReference>
        </extension>
        <identifier>
          <system value="urn:oid:2.16.840.1.113883.2.4.3.11.999.77.6.1"/>
          <value value="MBH_200_variabelefrequentie_MGB"/>
        </identifier>
        <status value="active"/>
        <category>
          <coding>
            <system value="http://snomed.info/sct"/>
            <code value="422979000"/>
            <display value="bevinding betreffende gedrag met betrekking tot medicatieregime"/>
          </coding>
        </category>
        <medicationReference>
          <reference value="urn:uuid:c33f06ea-6a95-11ec-0000-020000000000"/>
          <type value="Medication"/>
          <display value="MIZOLASTINE TABLET MGA 10MG"/>
        </medicationReference>
        <subject>
          <reference value="urn:uuid:c33f04b0-6a95-11ec-0000-020000000000"/>
          <type value="Patient"/>
          <display value="Patient, M. XXX_Rambaldo"/>
        </subject>
        <effectivePeriod>
          <start value="${DATE, T, D, +0}T00:00:00+02:00"/>
          <end value="${DATE, T, D, +16}T23:59:59+02:00"/>
        </effectivePeriod>
        <dateAsserted value="${DATE, T, D, +16}T16:00:00+02:00"/>
        <informationSource>
          <reference value="urn:uuid:c33f04b0-6a95-11ec-0000-020000000000"/>
          <type value="Patient"/>
          <display value="Patient, M. XXX_Rambaldo"/>
        </informationSource>
        <derivedFrom>
          <extension url="http://nictiz.nl/fhir/StructureDefinition/ext-ResourceCategory">
            <valueCodeableConcept>
              <coding>
                <system value="http://snomed.info/sct"/>
                <code value="33633005"/>
                <display value="voorschrijven"/>
              </coding>
            </valueCodeableConcept>
          </extension>
          <identifier>
            <system value="urn:oid:2.16.840.1.113883.2.4.3.11.999.77.16076005.1"/>
            <value value="MBH_200_variabelefrequentie_MA"/>
          </identifier>
          <display value="relatie naar medicatieafspraak"/>
        </derivedFrom>
        <derivedFrom>
          <extension url="http://nictiz.nl/fhir/StructureDefinition/ext-ResourceCategory">
            <valueCodeableConcept>
              <coding>
                <system value="http://snomed.info/sct"/>
                <code value="422037009"/>
                <display value="toedieningsafspraak"/>
              </coding>
            </valueCodeableConcept>
          </extension>
          <identifier>
            <system value="urn:oid:2.16.840.1.113883.2.4.3.11.999.77.422037009.1"/>
            <value value="MBH_200_variabelefrequentie_TA"/>
          </identifier>
          <display value="relatie naar toedieningsafspraak"/>
        </derivedFrom>
        <dosage>
          <timing>
            <repeat>
              <frequency value="1"/>
              <frequencyMax value="2"/>
              <period value="1"/>
              <periodUnit value="d"/>
            </repeat>
          </timing>
          <route>
            <coding>
              <system value="urn:oid:2.16.840.1.113883.2.4.4.9"/>
              <code value="9"/>
              <display value="Oraal"/>
            </coding>
          </route>
          <doseAndRate>
            <doseQuantity>
              <extension url="http://hl7.org/fhir/StructureDefinition/iso21090-PQ-translation">
                <valueQuantity>
                  <value value="1"/>
                  <unit value="stuk"/>
                  <system value="urn:oid:2.16.840.1.113883.2.4.4.1.900.2"/>
                  <code value="245"/>
                </valueQuantity>
              </extension>
              <value value="1"/>
              <unit value="stuk"/>
              <system value="http://unitsofmeasure.org"/>
              <code value="1"/>
            </doseQuantity>
          </doseAndRate>
        </dosage>
      </MedicationStatement>
    </resource>
    <request>
      <method value="POST"/>
      <url value="MedicationStatement"/>
    </request>
  </entry>
  <entry>
    <fullUrl value="urn:uuid:c33f0528-6a95-11ec-0000-020000000000"/>
    <resource>
      <MedicationStatement>
        <meta>
          <profile value="http://nictiz.nl/fhir/StructureDefinition/mp-MedicationUse2"/>
        </meta>
        <text>
          <status value="extensions"/>
          <div xmlns="http://www.w3.org/1999/xhtml">
            <table>
              <caption>MedicationStatement. Subject: Patient, M. XXX_Rambaldo. Id: MBH_200_interval_MGB (urn:oid:2.16.840.1.113883.2.4.3.11.999.77.6.1), Categorie: <span title="bevinding betreffende gedrag met betrekking tot medicatieregime (422979000 - SNOMED CT)">bevinding betreffende gedrag met betrekking tot medicatieregime</span>, Status: actief</caption>
              <tbody>
                <tr>
                  <th>Medicatie</th>
                  <td>AMOXICILLINE DISPERTABLET 500MG</td>
                </tr>
                <tr>
                  <th>Datum/tijd</th>
                  <td>${DATE, T, D, +0}T00:00:00+02:00 - ${DATE, T, D, +16}T23:59:59+02:00</td>
                </tr>
                <tr>
                  <th>Informant</th>
                  <td>${DATE, T, D, +16}T23:59:59+02:00 - Patient, M. XXX_Rambaldo</td>
                </tr>
                <tr>
                  <th>Ondersteunende informatie</th>
                  <td>relatie naar medicatieafspraak (Id: MBH_200_interval_MA (urn:oid:2.16.840.1.113883.2.4.3.11.999.77.16076005.1))</td>
                </tr>
                <tr>
                  <th>Dosering</th>
                  <td>
                    <div>Timing: <div>eenmalig per 8 uren. Tijden zo precies mogelijk aanhouden</div>
                    </div>
                    <div>Toedieningsweg: <span title="Oraal (9 - G-Standaard thesaurus subtabel 0007)">Oraal</span>
                    </div>
                    <div>Dosering: doseAndRate TODO</div>
                  </td>
                </tr>
              </tbody>
            </table>
          </div>
        </text>
        <extension url="http://nictiz.nl/fhir/StructureDefinition/ext-RenderedDosageInstruction">
          <valueString value="Vanaf T, tot en met T + 16 dagen, iedere 8 uur 1 stuk - let op, tijden exact aanhouden, Oraal"/>
        </extension>
        <extension url="http://nictiz.nl/fhir/StructureDefinition/ext-MedicationUse2.Prescriber">
          <valueReference>
            <reference value="urn:uuid:c33f04ce-6a95-11ec-0000-020000000000"/>
            <type value="PractitionerRole"/>
            <display value="Healthcare professional (role), Peter van Pulver, Huisartsen, niet nader gespecificeerd"/>
          </valueReference>
        </extension>
        <extension url="http://nictiz.nl/fhir/StructureDefinition/ext-AsAgreedIndicator">
          <valueBoolean value="true"/>
        </extension>
        <extension url="http://nictiz.nl/fhir/StructureDefinition/ext-PharmaceuticalTreatment.Identifier">
          <valueIdentifier>
            <system value="urn:oid:2.16.840.1.113883.2.4.3.11.999.77.1.1"/>
            <value value="MBH_200_interval"/>
          </valueIdentifier>
        </extension>
        <extension url="http://nictiz.nl/fhir/StructureDefinition/ext-MedicationUse2.Author">
          <valueReference>
            <reference value="urn:uuid:c33f04ce-6a95-11ec-0000-020000000000"/>
            <type value="PractitionerRole"/>
            <display value="Healthcare professional (role), Peter van Pulver, Huisartsen, niet nader gespecificeerd"/>
          </valueReference>
        </extension>
        <identifier>
          <system value="urn:oid:2.16.840.1.113883.2.4.3.11.999.77.6.1"/>
          <value value="MBH_200_interval_MGB"/>
        </identifier>
        <status value="active"/>
        <category>
          <coding>
            <system value="http://snomed.info/sct"/>
            <code value="422979000"/>
            <display value="bevinding betreffende gedrag met betrekking tot medicatieregime"/>
          </coding>
        </category>
        <medicationReference>
          <reference value="urn:uuid:c33f0708-6a95-11ec-0000-020000000000"/>
          <type value="Medication"/>
          <display value="AMOXICILLINE DISPERTABLET 500MG"/>
        </medicationReference>
        <subject>
          <reference value="urn:uuid:c33f04b0-6a95-11ec-0000-020000000000"/>
          <type value="Patient"/>
          <display value="Patient, M. XXX_Rambaldo"/>
        </subject>
        <effectivePeriod>
          <start value="${DATE, T, D, +0}T00:00:00+02:00"/>
          <end value="${DATE, T, D, +16}T23:59:59+02:00"/>
        </effectivePeriod>
        <dateAsserted value="${DATE, T, D, +16}T23:59:59+02:00"/>
        <informationSource>
          <reference value="urn:uuid:c33f04b0-6a95-11ec-0000-020000000000"/>
          <type value="Patient"/>
          <display value="Patient, M. XXX_Rambaldo"/>
        </informationSource>
        <derivedFrom>
          <extension url="http://nictiz.nl/fhir/StructureDefinition/ext-ResourceCategory">
            <valueCodeableConcept>
              <coding>
                <system value="http://snomed.info/sct"/>
                <code value="33633005"/>
                <display value="voorschrijven"/>
              </coding>
            </valueCodeableConcept>
          </extension>
          <identifier>
            <system value="urn:oid:2.16.840.1.113883.2.4.3.11.999.77.16076005.1"/>
            <value value="MBH_200_interval_MA"/>
          </identifier>
          <display value="relatie naar medicatieafspraak"/>
        </derivedFrom>
        <dosage>
          <timing>
            <repeat>
              <extension url="http://hl7.org/fhir/StructureDefinition/timing-exact">
                <valueBoolean value="true"/>
              </extension>
              <frequency value="1"/>
              <period value="8"/>
              <periodUnit value="h"/>
            </repeat>
          </timing>
          <route>
            <coding>
              <system value="urn:oid:2.16.840.1.113883.2.4.4.9"/>
              <code value="9"/>
              <display value="Oraal"/>
            </coding>
          </route>
          <doseAndRate>
            <doseQuantity>
              <extension url="http://hl7.org/fhir/StructureDefinition/iso21090-PQ-translation">
                <valueQuantity>
                  <value value="1"/>
                  <unit value="stuk"/>
                  <system value="urn:oid:2.16.840.1.113883.2.4.4.1.900.2"/>
                  <code value="245"/>
                </valueQuantity>
              </extension>
              <value value="1"/>
              <unit value="stuk"/>
              <system value="http://unitsofmeasure.org"/>
              <code value="1"/>
            </doseQuantity>
          </doseAndRate>
        </dosage>
      </MedicationStatement>
    </resource>
    <request>
      <method value="POST"/>
      <url value="MedicationStatement"/>
    </request>
  </entry>
  <entry>
    <fullUrl value="urn:uuid:c33f0546-6a95-11ec-0000-020000000000"/>
    <resource>
      <MedicationStatement>
        <meta>
          <profile value="http://nictiz.nl/fhir/StructureDefinition/mp-MedicationUse2"/>
        </meta>
        <text>
          <status value="extensions"/>
          <div xmlns="http://www.w3.org/1999/xhtml">
            <table>
              <caption>MedicationStatement. Subject: Patient, M. XXX_Rambaldo. Id: MBH_200_variabelehoeveelheid_MGB (urn:oid:2.16.840.1.113883.2.4.3.11.999.77.6.1), Categorie: <span title="bevinding betreffende gedrag met betrekking tot medicatieregime (422979000 - SNOMED CT)">bevinding betreffende gedrag met betrekking tot medicatieregime</span>, Status: actief</caption>
              <tbody>
                <tr>
                  <th>Medicatie</th>
                  <td>PARACETAMOL 500MG TABLET</td>
                </tr>
                <tr>
                  <th>Datum/tijd</th>
                  <td>${DATE, T, D, +0}T00:00:00+02:00 - ${DATE, T, D, +14}T23:59:59+02:00</td>
                </tr>
                <tr>
                  <th>Informant</th>
                  <td>${DATE, T, D, +14}T23:59:59+02:00 - Patient, M. XXX_Rambaldo</td>
                </tr>
                <tr>
                  <th>Ondersteunende informatie</th>
                  <td>relatie naar medicatieafspraak (Id: MBH_200_variabelehoeveelheid_MA (urn:oid:2.16.840.1.113883.2.4.3.11.999.77.16076005.1))</td>
                </tr>
                <tr>
                  <th>Dosering</th>
                  <td>
                    <div>Timing: <div>3 maal per dag</div>
                    </div>
                    <div>Toedieningsweg: <span title="oraal (9 - G-Standaard thesaurus subtabel 0007)">oraal</span>
                    </div>
                    <div>Dosering: doseAndRate TODO</div>
                  </td>
                </tr>
              </tbody>
            </table>
          </div>
        </text>
        <extension url="http://nictiz.nl/fhir/StructureDefinition/ext-RenderedDosageInstruction">
          <valueString value="Vanaf T, tot en met T + 14 dagen, 3 maal per dag 1 à 2 stuks, oraal"/>
        </extension>
        <extension url="http://nictiz.nl/fhir/StructureDefinition/ext-MedicationUse2.Prescriber">
          <valueReference>
            <reference value="urn:uuid:c33f04ce-6a95-11ec-0000-020000000000"/>
            <type value="PractitionerRole"/>
            <display value="Healthcare professional (role), Peter van Pulver, Huisartsen, niet nader gespecificeerd"/>
          </valueReference>
        </extension>
        <extension url="http://nictiz.nl/fhir/StructureDefinition/ext-AsAgreedIndicator">
          <valueBoolean value="true"/>
        </extension>
        <extension url="http://nictiz.nl/fhir/StructureDefinition/ext-PharmaceuticalTreatment.Identifier">
          <valueIdentifier>
            <system value="urn:oid:2.16.840.1.113883.2.4.3.11.999.77.1.1"/>
            <value value="MBH_200_variabelehoeveelheid"/>
          </valueIdentifier>
        </extension>
        <extension url="http://nictiz.nl/fhir/StructureDefinition/ext-MedicationUse2.Author">
          <valueReference>
            <reference value="urn:uuid:c33f04ce-6a95-11ec-0000-020000000000"/>
            <type value="PractitionerRole"/>
            <display value="Healthcare professional (role), Peter van Pulver, Huisartsen, niet nader gespecificeerd"/>
          </valueReference>
        </extension>
        <identifier>
          <system value="urn:oid:2.16.840.1.113883.2.4.3.11.999.77.6.1"/>
          <value value="MBH_200_variabelehoeveelheid_MGB"/>
        </identifier>
        <status value="active"/>
        <category>
          <coding>
            <system value="http://snomed.info/sct"/>
            <code value="422979000"/>
            <display value="bevinding betreffende gedrag met betrekking tot medicatieregime"/>
          </coding>
        </category>
        <medicationReference>
          <reference value="urn:uuid:c33f0726-6a95-11ec-0000-020000000000"/>
          <type value="Medication"/>
          <display value="PARACETAMOL 500MG TABLET"/>
        </medicationReference>
        <subject>
          <reference value="urn:uuid:c33f04b0-6a95-11ec-0000-020000000000"/>
          <type value="Patient"/>
          <display value="Patient, M. XXX_Rambaldo"/>
        </subject>
        <effectivePeriod>
          <start value="${DATE, T, D, +0}T00:00:00+02:00"/>
          <end value="${DATE, T, D, +14}T23:59:59+02:00"/>
        </effectivePeriod>
        <dateAsserted value="${DATE, T, D, +14}T23:59:59+02:00"/>
        <informationSource>
          <reference value="urn:uuid:c33f04b0-6a95-11ec-0000-020000000000"/>
          <type value="Patient"/>
          <display value="Patient, M. XXX_Rambaldo"/>
        </informationSource>
        <derivedFrom>
          <extension url="http://nictiz.nl/fhir/StructureDefinition/ext-ResourceCategory">
            <valueCodeableConcept>
              <coding>
                <system value="http://snomed.info/sct"/>
                <code value="33633005"/>
                <display value="voorschrijven"/>
              </coding>
            </valueCodeableConcept>
          </extension>
          <identifier>
            <system value="urn:oid:2.16.840.1.113883.2.4.3.11.999.77.16076005.1"/>
            <value value="MBH_200_variabelehoeveelheid_MA"/>
          </identifier>
          <display value="relatie naar medicatieafspraak"/>
        </derivedFrom>
        <dosage>
          <timing>
            <repeat>
              <frequency value="3"/>
              <period value="1"/>
              <periodUnit value="d"/>
            </repeat>
          </timing>
          <route>
            <coding>
              <system value="urn:oid:2.16.840.1.113883.2.4.4.9"/>
              <code value="9"/>
              <display value="oraal"/>
            </coding>
          </route>
          <doseAndRate>
            <doseRange>
              <low>
                <extension url="http://hl7.org/fhir/StructureDefinition/iso21090-PQ-translation">
                  <valueQuantity>
                    <value value="1"/>
                    <unit value="stuk"/>
                    <system value="urn:oid:2.16.840.1.113883.2.4.4.1.900.2"/>
                    <code value="245"/>
                  </valueQuantity>
                </extension>
                <value value="1"/>
                <unit value="stuk"/>
                <system value="http://unitsofmeasure.org"/>
                <code value="1"/>
              </low>
              <high>
                <extension url="http://hl7.org/fhir/StructureDefinition/iso21090-PQ-translation">
                  <valueQuantity>
                    <value value="2"/>
                    <unit value="stuk"/>
                    <system value="urn:oid:2.16.840.1.113883.2.4.4.1.900.2"/>
                    <code value="245"/>
                  </valueQuantity>
                </extension>
                <value value="2"/>
                <unit value="stuk"/>
                <system value="http://unitsofmeasure.org"/>
                <code value="1"/>
              </high>
            </doseRange>
          </doseAndRate>
        </dosage>
      </MedicationStatement>
    </resource>
    <request>
      <method value="POST"/>
      <url value="MedicationStatement"/>
    </request>
  </entry>
  <entry>
    <fullUrl value="urn:uuid:c33f0564-6a95-11ec-0000-020000000000"/>
    <resource>
      <MedicationStatement>
        <meta>
          <profile value="http://nictiz.nl/fhir/StructureDefinition/mp-MedicationUse2"/>
        </meta>
        <text>
          <status value="extensions"/>
          <div xmlns="http://www.w3.org/1999/xhtml">
            <table>
              <caption>MedicationStatement. Subject: Patient, M. XXX_Rambaldo. Id: MBH_200_zonderkeerdosis_MGB (urn:oid:2.16.840.1.113883.2.4.3.11.999.77.6.1), Categorie: <span title="bevinding betreffende gedrag met betrekking tot medicatieregime (422979000 - SNOMED CT)">bevinding betreffende gedrag met betrekking tot medicatieregime</span>, Status: actief</caption>
              <tbody>
                <tr>
                  <th>Medicatie</th>
                  <td>Cetomacrogolcreme met vaseline 10%</td>
                </tr>
                <tr>
                  <th>Datum/tijd</th>
                  <td>${DATE, T, D, +0}T00:00:00+02:00 - ${DATE, T, D, +21}T23:59:59+02:00</td>
                </tr>
                <tr>
                  <th>Informant</th>
                  <td>${DATE, T, D, +21}T23:59:59+02:00 - Patient, M. XXX_Rambaldo</td>
                </tr>
                <tr>
                  <th>Ondersteunende informatie</th>
                  <td>relatie naar medicatieafspraak (Id: MBH_200_zonderkeerdosis_MA (urn:oid:2.16.840.1.113883.2.4.3.11.999.77.16076005.1))</td>
                </tr>
                <tr>
                  <th>Dosering</th>
                  <td>
                    <div>Instructie: <span title="aanbrengen (1018 - nhg-tabel-25-gebruiksvoorschrift#aanvullend-numeriek)">aanbrengen</span>
                    </div>
                    <div>Timing: <div>3 maal per dag</div>
                    </div>
                    <div>Toedieningsweg: <span title="cutaan (53 - G-Standaard thesaurus subtabel 0007)">cutaan</span>
                    </div>
                  </td>
                </tr>
              </tbody>
            </table>
          </div>
        </text>
        <extension url="http://nictiz.nl/fhir/StructureDefinition/ext-RenderedDosageInstruction">
          <valueString value="Vanaf T, tot en met T + 21 dagen, 3 maal per dag, aanbrengen, cutaan"/>
        </extension>
        <extension url="http://nictiz.nl/fhir/StructureDefinition/ext-MedicationUse2.Prescriber">
          <valueReference>
            <reference value="urn:uuid:c33f04ce-6a95-11ec-0000-020000000000"/>
            <type value="PractitionerRole"/>
            <display value="Healthcare professional (role), Peter van Pulver, Huisartsen, niet nader gespecificeerd"/>
          </valueReference>
        </extension>
        <extension url="http://nictiz.nl/fhir/StructureDefinition/ext-AsAgreedIndicator">
          <valueBoolean value="true"/>
        </extension>
        <extension url="http://nictiz.nl/fhir/StructureDefinition/ext-PharmaceuticalTreatment.Identifier">
          <valueIdentifier>
            <system value="urn:oid:2.16.840.1.113883.2.4.3.11.999.77.1.1"/>
            <value value="MBH_200_zonderkeerdosis"/>
          </valueIdentifier>
        </extension>
        <extension url="http://nictiz.nl/fhir/StructureDefinition/ext-MedicationUse2.Author">
          <valueReference>
            <reference value="urn:uuid:c33f04ce-6a95-11ec-0000-020000000000"/>
            <type value="PractitionerRole"/>
            <display value="Healthcare professional (role), Peter van Pulver, Huisartsen, niet nader gespecificeerd"/>
          </valueReference>
        </extension>
        <identifier>
          <system value="urn:oid:2.16.840.1.113883.2.4.3.11.999.77.6.1"/>
          <value value="MBH_200_zonderkeerdosis_MGB"/>
        </identifier>
        <status value="active"/>
        <category>
          <coding>
            <system value="http://snomed.info/sct"/>
            <code value="422979000"/>
            <display value="bevinding betreffende gedrag met betrekking tot medicatieregime"/>
          </coding>
        </category>
        <medicationReference>
          <reference value="urn:uuid:c33f0744-6a95-11ec-0000-020000000000"/>
          <type value="Medication"/>
          <display value="Cetomacrogolcreme met vaseline 10%"/>
        </medicationReference>
        <subject>
          <reference value="urn:uuid:c33f04b0-6a95-11ec-0000-020000000000"/>
          <type value="Patient"/>
          <display value="Patient, M. XXX_Rambaldo"/>
        </subject>
        <effectivePeriod>
          <start value="${DATE, T, D, +0}T00:00:00+02:00"/>
          <end value="${DATE, T, D, +21}T23:59:59+02:00"/>
        </effectivePeriod>
        <dateAsserted value="${DATE, T, D, +21}T23:59:59+02:00"/>
        <informationSource>
          <reference value="urn:uuid:c33f04b0-6a95-11ec-0000-020000000000"/>
          <type value="Patient"/>
          <display value="Patient, M. XXX_Rambaldo"/>
        </informationSource>
        <derivedFrom>
          <extension url="http://nictiz.nl/fhir/StructureDefinition/ext-ResourceCategory">
            <valueCodeableConcept>
              <coding>
                <system value="http://snomed.info/sct"/>
                <code value="33633005"/>
                <display value="voorschrijven"/>
              </coding>
            </valueCodeableConcept>
          </extension>
          <identifier>
            <system value="urn:oid:2.16.840.1.113883.2.4.3.11.999.77.16076005.1"/>
            <value value="MBH_200_zonderkeerdosis_MA"/>
          </identifier>
          <display value="relatie naar medicatieafspraak"/>
        </derivedFrom>
        <dosage>
          <additionalInstruction>
            <coding>
              <system value="https://referentiemodel.nhg.org/tabellen/nhg-tabel-25-gebruiksvoorschrift#aanvullend-numeriek"/>
              <code value="1018"/>
              <display value="aanbrengen"/>
            </coding>
          </additionalInstruction>
          <timing>
            <repeat>
              <frequency value="3"/>
              <period value="1"/>
              <periodUnit value="d"/>
            </repeat>
          </timing>
          <route>
            <coding>
              <system value="urn:oid:2.16.840.1.113883.2.4.4.9"/>
              <code value="53"/>
              <display value="cutaan"/>
            </coding>
          </route>
        </dosage>
      </MedicationStatement>
    </resource>
    <request>
      <method value="POST"/>
      <url value="MedicationStatement"/>
    </request>
  </entry>
  <entry>
    <fullUrl value="urn:uuid:c33f0582-6a95-11ec-0000-020000000000"/>
    <resource>
      <MedicationStatement>
        <meta>
          <profile value="http://nictiz.nl/fhir/StructureDefinition/mp-MedicationUse2"/>
        </meta>
        <text>
          <status value="extensions"/>
          <div xmlns="http://www.w3.org/1999/xhtml">
            <table>
              <caption>MedicationStatement. Subject: Patient, M. XXX_Rambaldo. Id: MBH_200_bijzonderekeerdosis_MGB (urn:oid:2.16.840.1.113883.2.4.3.11.999.77.6.1), Categorie: <span title="bevinding betreffende gedrag met betrekking tot medicatieregime (422979000 - SNOMED CT)">bevinding betreffende gedrag met betrekking tot medicatieregime</span>, Status: actief</caption>
              <tbody>
                <tr>
                  <th>Medicatie</th>
                  <td>NAPROXEN 500MG TABLET</td>
                </tr>
                <tr>
                  <th>Datum/tijd</th>
                  <td>${DATE, T, D, +0}T00:00:00+02:00 - ${DATE, T, D, +14}T23:59:59+02:00</td>
                </tr>
                <tr>
                  <th>Informant</th>
                  <td>${DATE, T, D, +14}T23:59:59+02:00</td>
                </tr>
                <tr>
                  <th>Ondersteunende informatie</th>
                  <td>relatie naar medicatieafspraak (Id: MBH_200_bijzonderekeerdosis_MA (urn:oid:2.16.840.1.113883.2.4.3.11.999.77.16076005.1))</td>
                </tr>
                <tr>
                  <th>Dosering</th>
                  <td>
                    <div>Timing: <div>2 maal per dag</div>
                    </div>
                    <div>Toedieningsweg: <span title="oraal (9 - G-Standaard thesaurus subtabel 0007)">oraal</span>
                    </div>
                    <div>Dosering: doseAndRate TODO</div>
                  </td>
                </tr>
              </tbody>
            </table>
          </div>
        </text>
        <extension url="http://nictiz.nl/fhir/StructureDefinition/ext-RenderedDosageInstruction">
          <valueString value="Vanaf T, tot en met T + 14 dagen, 2 maal per dag 0.5 stuk, oraal"/>
        </extension>
        <extension url="http://nictiz.nl/fhir/StructureDefinition/ext-MedicationUse2.Prescriber">
          <valueReference>
            <reference value="urn:uuid:c33f04ce-6a95-11ec-0000-020000000000"/>
            <type value="PractitionerRole"/>
            <display value="Healthcare professional (role), Peter van Pulver, Huisartsen, niet nader gespecificeerd"/>
          </valueReference>
        </extension>
        <extension url="http://nictiz.nl/fhir/StructureDefinition/ext-AsAgreedIndicator">
          <valueBoolean value="true"/>
        </extension>
        <extension url="http://nictiz.nl/fhir/StructureDefinition/ext-PharmaceuticalTreatment.Identifier">
          <valueIdentifier>
            <system value="urn:oid:2.16.840.1.113883.2.4.3.11.999.77.1.1"/>
            <value value="MBH_200_bijzonderekeerdosis"/>
          </valueIdentifier>
        </extension>
        <extension url="http://nictiz.nl/fhir/StructureDefinition/ext-MedicationUse2.Author">
          <valueReference>
            <reference value="urn:uuid:c33f04ce-6a95-11ec-0000-020000000000"/>
            <type value="PractitionerRole"/>
            <display value="Healthcare professional (role), Peter van Pulver, Huisartsen, niet nader gespecificeerd"/>
          </valueReference>
        </extension>
        <identifier>
          <system value="urn:oid:2.16.840.1.113883.2.4.3.11.999.77.6.1"/>
          <value value="MBH_200_bijzonderekeerdosis_MGB"/>
        </identifier>
        <status value="active"/>
        <category>
          <coding>
            <system value="http://snomed.info/sct"/>
            <code value="422979000"/>
            <display value="bevinding betreffende gedrag met betrekking tot medicatieregime"/>
          </coding>
        </category>
        <medicationReference>
          <reference value="urn:uuid:c33f0762-6a95-11ec-0000-020000000000"/>
          <type value="Medication"/>
          <display value="NAPROXEN 500MG TABLET"/>
        </medicationReference>
        <subject>
          <reference value="urn:uuid:c33f04b0-6a95-11ec-0000-020000000000"/>
          <type value="Patient"/>
          <display value="Patient, M. XXX_Rambaldo"/>
        </subject>
        <effectivePeriod>
          <start value="${DATE, T, D, +0}T00:00:00+02:00"/>
          <end value="${DATE, T, D, +14}T23:59:59+02:00"/>
        </effectivePeriod>
        <dateAsserted value="${DATE, T, D, +14}T23:59:59+02:00"/>
        <derivedFrom>
          <extension url="http://nictiz.nl/fhir/StructureDefinition/ext-ResourceCategory">
            <valueCodeableConcept>
              <coding>
                <system value="http://snomed.info/sct"/>
                <code value="33633005"/>
                <display value="voorschrijven"/>
              </coding>
            </valueCodeableConcept>
          </extension>
          <identifier>
            <system value="urn:oid:2.16.840.1.113883.2.4.3.11.999.77.16076005.1"/>
            <value value="MBH_200_bijzonderekeerdosis_MA"/>
          </identifier>
          <display value="relatie naar medicatieafspraak"/>
        </derivedFrom>
        <dosage>
          <timing>
            <repeat>
              <frequency value="2"/>
              <period value="1"/>
              <periodUnit value="d"/>
            </repeat>
          </timing>
          <route>
            <coding>
              <system value="urn:oid:2.16.840.1.113883.2.4.4.9"/>
              <code value="9"/>
              <display value="oraal"/>
            </coding>
          </route>
          <doseAndRate>
            <doseQuantity>
              <extension url="http://hl7.org/fhir/StructureDefinition/iso21090-PQ-translation">
                <valueQuantity>
                  <value value="0.5"/>
                  <unit value="stuk"/>
                  <system value="urn:oid:2.16.840.1.113883.2.4.4.1.900.2"/>
                  <code value="245"/>
                </valueQuantity>
              </extension>
              <value value="0.5"/>
              <unit value="stuk"/>
              <system value="http://unitsofmeasure.org"/>
              <code value="1"/>
            </doseQuantity>
          </doseAndRate>
        </dosage>
      </MedicationStatement>
    </resource>
    <request>
      <method value="POST"/>
      <url value="MedicationStatement"/>
    </request>
  </entry>
  <entry>
    <fullUrl value="urn:uuid:c33f05a0-6a95-11ec-0000-020000000000"/>
    <resource>
      <MedicationStatement>
        <meta>
          <profile value="http://nictiz.nl/fhir/StructureDefinition/mp-MedicationUse2"/>
        </meta>
        <text>
          <status value="extensions"/>
          <div xmlns="http://www.w3.org/1999/xhtml">
            <table>
              <caption>MedicationStatement. Subject: Patient, M. XXX_Rambaldo. Id: MBH_200_variabelehoeveelheid2_MGB (urn:oid:2.16.840.1.113883.2.4.3.11.999.77.6.1), Categorie: <span title="bevinding betreffende gedrag met betrekking tot medicatieregime (422979000 - SNOMED CT)">bevinding betreffende gedrag met betrekking tot medicatieregime</span>, Status: actief</caption>
              <tbody>
                <tr>
                  <th>Medicatie</th>
                  <td>WATERSTOFPEROXIDE CONC VOOR MONDSPOELING 30MG/ML</td>
                </tr>
                <tr>
                  <th>Datum/tijd</th>
                  <td>${DATE, T, D, +0}T00:00:00+02:00 - ${DATE, T, D, +21}T23:59:59+02:00</td>
                </tr>
                <tr>
                  <th>Informant</th>
                  <td>${DATE, T, D, +21}T23:59:59+02:00 - Patient, M. XXX_Rambaldo</td>
                </tr>
                <tr>
                  <th>Ondersteunende informatie</th>
                  <td>relatie naar medicatieafspraak (Id: MBH_200_variabelehoeveelheid2_MA (urn:oid:2.16.840.1.113883.2.4.3.11.999.77.16076005.1))</td>
                </tr>
                <tr>
                  <th>Dosering</th>
                  <td>
                    <div>Instructie: <ul>
                        <li>
                          <span title="Eerst oplossen in water (27 - nhg-tabel-25-gebruiksvoorschrift#aanvullend-numeriek)">Eerst oplossen in water</span>
                        </li>
                        <li>
                          <span title="mond spoelen, daarna uitspugen (69 - nhg-tabel-25-gebruiksvoorschrift#aanvullend-numeriek)">mond spoelen, daarna uitspugen</span>
                        </li>
                      </ul>
                    </div>
                    <div>Timing: <div>2 maal per dag</div>
                    </div>
                    <div>Toedieningsweg: <span title="OROMUCOSAAL (34 - G-Standaard thesaurus subtabel 0007)">OROMUCOSAAL</span>
                    </div>
                    <div>Dosering: doseAndRate TODO</div>
                  </td>
                </tr>
              </tbody>
            </table>
          </div>
        </text>
        <extension url="http://nictiz.nl/fhir/StructureDefinition/ext-RenderedDosageInstruction">
          <valueString value="Vanaf T, tot en met T + 21 dagen, 2 maal per dag 10 à 15 ml, Eerst oplossen in water, mond spoelen, daarna uitspugen, OROMUCOSAAL"/>
        </extension>
        <extension url="http://nictiz.nl/fhir/StructureDefinition/ext-MedicationUse2.Prescriber">
          <valueReference>
            <reference value="urn:uuid:c33f04ce-6a95-11ec-0000-020000000000"/>
            <type value="PractitionerRole"/>
            <display value="Healthcare professional (role), Peter van Pulver, Huisartsen, niet nader gespecificeerd"/>
          </valueReference>
        </extension>
        <extension url="http://nictiz.nl/fhir/StructureDefinition/ext-AsAgreedIndicator">
          <valueBoolean value="true"/>
        </extension>
        <extension url="http://nictiz.nl/fhir/StructureDefinition/ext-PharmaceuticalTreatment.Identifier">
          <valueIdentifier>
            <system value="urn:oid:2.16.840.1.113883.2.4.3.11.999.77.1.1"/>
            <value value="MBH_200_variabelehoeveelheid2"/>
          </valueIdentifier>
        </extension>
        <extension url="http://nictiz.nl/fhir/StructureDefinition/ext-MedicationUse2.Author">
          <valueReference>
            <reference value="urn:uuid:c33f04ce-6a95-11ec-0000-020000000000"/>
            <type value="PractitionerRole"/>
            <display value="Healthcare professional (role), Peter van Pulver, Huisartsen, niet nader gespecificeerd"/>
          </valueReference>
        </extension>
        <identifier>
          <system value="urn:oid:2.16.840.1.113883.2.4.3.11.999.77.6.1"/>
          <value value="MBH_200_variabelehoeveelheid2_MGB"/>
        </identifier>
        <status value="active"/>
        <category>
          <coding>
            <system value="http://snomed.info/sct"/>
            <code value="422979000"/>
            <display value="bevinding betreffende gedrag met betrekking tot medicatieregime"/>
          </coding>
        </category>
        <medicationReference>
          <reference value="urn:uuid:c33f0780-6a95-11ec-0000-020000000000"/>
          <type value="Medication"/>
          <display value="WATERSTOFPEROXIDE CONC VOOR MONDSPOELING 30MG/ML"/>
        </medicationReference>
        <subject>
          <reference value="urn:uuid:c33f04b0-6a95-11ec-0000-020000000000"/>
          <type value="Patient"/>
          <display value="Patient, M. XXX_Rambaldo"/>
        </subject>
        <effectivePeriod>
          <start value="${DATE, T, D, +0}T00:00:00+02:00"/>
          <end value="${DATE, T, D, +21}T23:59:59+02:00"/>
        </effectivePeriod>
        <dateAsserted value="${DATE, T, D, +21}T23:59:59+02:00"/>
        <informationSource>
          <reference value="urn:uuid:c33f04b0-6a95-11ec-0000-020000000000"/>
          <type value="Patient"/>
          <display value="Patient, M. XXX_Rambaldo"/>
        </informationSource>
        <derivedFrom>
          <extension url="http://nictiz.nl/fhir/StructureDefinition/ext-ResourceCategory">
            <valueCodeableConcept>
              <coding>
                <system value="http://snomed.info/sct"/>
                <code value="33633005"/>
                <display value="voorschrijven"/>
              </coding>
            </valueCodeableConcept>
          </extension>
          <identifier>
            <system value="urn:oid:2.16.840.1.113883.2.4.3.11.999.77.16076005.1"/>
            <value value="MBH_200_variabelehoeveelheid2_MA"/>
          </identifier>
          <display value="relatie naar medicatieafspraak"/>
        </derivedFrom>
        <dosage>
          <additionalInstruction>
            <coding>
              <system value="https://referentiemodel.nhg.org/tabellen/nhg-tabel-25-gebruiksvoorschrift#aanvullend-numeriek"/>
              <code value="27"/>
              <display value="Eerst oplossen in water"/>
            </coding>
          </additionalInstruction>
          <additionalInstruction>
            <coding>
              <system value="https://referentiemodel.nhg.org/tabellen/nhg-tabel-25-gebruiksvoorschrift#aanvullend-numeriek"/>
              <code value="69"/>
              <display value="mond spoelen, daarna uitspugen"/>
            </coding>
          </additionalInstruction>
          <timing>
            <repeat>
              <frequency value="2"/>
              <period value="1"/>
              <periodUnit value="d"/>
            </repeat>
          </timing>
          <route>
            <coding>
              <system value="urn:oid:2.16.840.1.113883.2.4.4.9"/>
              <code value="34"/>
              <display value="OROMUCOSAAL"/>
            </coding>
          </route>
          <doseAndRate>
            <doseRange>
              <low>
                <extension url="http://hl7.org/fhir/StructureDefinition/iso21090-PQ-translation">
                  <valueQuantity>
                    <value value="10"/>
                    <unit value="milliliter"/>
                    <system value="urn:oid:2.16.840.1.113883.2.4.4.1.900.2"/>
                    <code value="233"/>
                  </valueQuantity>
                </extension>
                <value value="10"/>
                <unit value="milliliter"/>
                <system value="http://unitsofmeasure.org"/>
                <code value="ml"/>
              </low>
              <high>
                <extension url="http://hl7.org/fhir/StructureDefinition/iso21090-PQ-translation">
                  <valueQuantity>
                    <value value="15"/>
                    <unit value="milliliter"/>
                    <system value="urn:oid:2.16.840.1.113883.2.4.4.1.900.2"/>
                    <code value="233"/>
                  </valueQuantity>
                </extension>
                <value value="15"/>
                <unit value="milliliter"/>
                <system value="http://unitsofmeasure.org"/>
                <code value="ml"/>
              </high>
            </doseRange>
          </doseAndRate>
        </dosage>
      </MedicationStatement>
    </resource>
    <request>
      <method value="POST"/>
      <url value="MedicationStatement"/>
    </request>
  </entry>
  <entry>
    <fullUrl value="urn:uuid:c33f05be-6a95-11ec-0000-020000000000"/>
    <resource>
      <MedicationStatement>
        <meta>
          <profile value="http://nictiz.nl/fhir/StructureDefinition/mp-MedicationUse2"/>
        </meta>
        <text>
          <status value="extensions"/>
          <div xmlns="http://www.w3.org/1999/xhtml">
            <table>
              <caption>MedicationStatement. Subject: Patient, M. XXX_Rambaldo. Id: MBH_200_tijdstippen_flexibel_MGB (urn:oid:2.16.840.1.113883.2.4.3.11.999.77.6.1), Categorie: <span title="bevinding betreffende gedrag met betrekking tot medicatieregime (422979000 - SNOMED CT)">bevinding betreffende gedrag met betrekking tot medicatieregime</span>, Status: actief</caption>
              <tbody>
                <tr>
                  <th>Medicatie</th>
                  <td>METFORMINE 500MG TABLET</td>
                </tr>
                <tr>
                  <th>Datum/tijd</th>
                  <td>${DATE, T, D, +0}T00:00:00+02:00 - ${DATE, T, D, +14}T23:59:59+02:00</td>
                </tr>
                <tr>
                  <th>Informant</th>
                  <td>${DATE, T, D, +14}T23:59:59+02:00 - Patient, M. XXX_Rambaldo</td>
                </tr>
                <tr>
                  <th>Ondersteunende informatie</th>
                  <td>relatie naar medicatieafspraak (Id: MBH_200_tijdstippen_flexibel_MA (urn:oid:2.16.840.1.113883.2.4.3.11.999.77.16076005.1))</td>
                </tr>
                <tr>
                  <th>Dosering</th>
                  <td>
                    <div>Timing: <div>08:00:00, 14:00:00, 20:00:00</div>
                    </div>
                    <div>Toedieningsweg: <span title="oraal (9 - G-Standaard thesaurus subtabel 0007)">oraal</span>
                    </div>
                    <div>Dosering: doseAndRate TODO</div>
                  </td>
                </tr>
              </tbody>
            </table>
          </div>
        </text>
        <extension url="http://nictiz.nl/fhir/StructureDefinition/ext-RenderedDosageInstruction">
          <valueString value="Vanaf T, tot en met T + 14 dagen, elke dag om 08:00, 14:00 en 20:00 1 stuk, oraal"/>
        </extension>
        <extension url="http://nictiz.nl/fhir/StructureDefinition/ext-MedicationUse2.Prescriber">
          <valueReference>
            <reference value="urn:uuid:c33f04ce-6a95-11ec-0000-020000000000"/>
            <type value="PractitionerRole"/>
            <display value="Healthcare professional (role), Peter van Pulver, Huisartsen, niet nader gespecificeerd"/>
          </valueReference>
        </extension>
        <extension url="http://nictiz.nl/fhir/StructureDefinition/ext-AsAgreedIndicator">
          <valueBoolean value="true"/>
        </extension>
        <extension url="http://nictiz.nl/fhir/StructureDefinition/ext-PharmaceuticalTreatment.Identifier">
          <valueIdentifier>
            <system value="urn:oid:2.16.840.1.113883.2.4.3.11.999.77.1.1"/>
            <value value="MBH_200_tijdstippen_flexibel"/>
          </valueIdentifier>
        </extension>
        <extension url="http://nictiz.nl/fhir/StructureDefinition/ext-MedicationUse2.Author">
          <valueReference>
            <reference value="urn:uuid:c33f04ce-6a95-11ec-0000-020000000000"/>
            <type value="PractitionerRole"/>
            <display value="Healthcare professional (role), Peter van Pulver, Huisartsen, niet nader gespecificeerd"/>
          </valueReference>
        </extension>
        <identifier>
          <system value="urn:oid:2.16.840.1.113883.2.4.3.11.999.77.6.1"/>
          <value value="MBH_200_tijdstippen_flexibel_MGB"/>
        </identifier>
        <status value="active"/>
        <category>
          <coding>
            <system value="http://snomed.info/sct"/>
            <code value="422979000"/>
            <display value="bevinding betreffende gedrag met betrekking tot medicatieregime"/>
          </coding>
        </category>
        <medicationReference>
          <reference value="urn:uuid:c33f079e-6a95-11ec-0000-020000000000"/>
          <type value="Medication"/>
          <display value="METFORMINE 500MG TABLET"/>
        </medicationReference>
        <subject>
          <reference value="urn:uuid:c33f04b0-6a95-11ec-0000-020000000000"/>
          <type value="Patient"/>
          <display value="Patient, M. XXX_Rambaldo"/>
        </subject>
        <effectivePeriod>
          <start value="${DATE, T, D, +0}T00:00:00+02:00"/>
          <end value="${DATE, T, D, +14}T23:59:59+02:00"/>
        </effectivePeriod>
        <dateAsserted value="${DATE, T, D, +14}T23:59:59+02:00"/>
        <informationSource>
          <reference value="urn:uuid:c33f04b0-6a95-11ec-0000-020000000000"/>
          <type value="Patient"/>
          <display value="Patient, M. XXX_Rambaldo"/>
        </informationSource>
        <derivedFrom>
          <extension url="http://nictiz.nl/fhir/StructureDefinition/ext-ResourceCategory">
            <valueCodeableConcept>
              <coding>
                <system value="http://snomed.info/sct"/>
                <code value="33633005"/>
                <display value="voorschrijven"/>
              </coding>
            </valueCodeableConcept>
          </extension>
          <identifier>
            <system value="urn:oid:2.16.840.1.113883.2.4.3.11.999.77.16076005.1"/>
            <value value="MBH_200_tijdstippen_flexibel_MA"/>
          </identifier>
          <display value="relatie naar medicatieafspraak"/>
        </derivedFrom>
        <dosage>
          <timing>
            <repeat>
              <extension url="http://hl7.org/fhir/StructureDefinition/timing-exact">
                <valueBoolean value="false"/>
              </extension>
              <timeOfDay value="08:00:00"/>
              <timeOfDay value="14:00:00"/>
              <timeOfDay value="20:00:00"/>
            </repeat>
          </timing>
          <route>
            <coding>
              <system value="urn:oid:2.16.840.1.113883.2.4.4.9"/>
              <code value="9"/>
              <display value="oraal"/>
            </coding>
          </route>
          <doseAndRate>
            <doseQuantity>
              <extension url="http://hl7.org/fhir/StructureDefinition/iso21090-PQ-translation">
                <valueQuantity>
                  <value value="1"/>
                  <unit value="stuk"/>
                  <system value="urn:oid:2.16.840.1.113883.2.4.4.1.900.2"/>
                  <code value="245"/>
                </valueQuantity>
              </extension>
              <value value="1"/>
              <unit value="stuk"/>
              <system value="http://unitsofmeasure.org"/>
              <code value="1"/>
            </doseQuantity>
          </doseAndRate>
        </dosage>
      </MedicationStatement>
    </resource>
    <request>
      <method value="POST"/>
      <url value="MedicationStatement"/>
    </request>
  </entry>
  <entry>
    <fullUrl value="urn:uuid:c33f05dc-6a95-11ec-0000-020000000000"/>
    <resource>
      <MedicationStatement>
        <meta>
          <profile value="http://nictiz.nl/fhir/StructureDefinition/mp-MedicationUse2"/>
        </meta>
        <text>
          <status value="extensions"/>
          <div xmlns="http://www.w3.org/1999/xhtml">
            <table>
              <caption>MedicationStatement. Subject: Patient, M. XXX_Rambaldo. Id: MBH_200_weekdagen_MGB (urn:oid:2.16.840.1.113883.2.4.3.11.999.77.6.1), Categorie: <span title="bevinding betreffende gedrag met betrekking tot medicatieregime (422979000 - SNOMED CT)">bevinding betreffende gedrag met betrekking tot medicatieregime</span>, Status: actief</caption>
              <tbody>
                <tr>
                  <th>Medicatie</th>
                  <td>IMIQUIMOD 50MG/G CREME</td>
                </tr>
                <tr>
                  <th>Datum/tijd</th>
                  <td>${DATE, T, D, +0}T00:00:00+02:00 - ${DATE, T, D, +14}T23:59:59+02:00</td>
                </tr>
                <tr>
                  <th>Informant</th>
                  <td>${DATE, T, D, +14}T23:59:59+02:00 - Patient, M. XXX_Rambaldo</td>
                </tr>
                <tr>
                  <th>Ondersteunende informatie</th>
                  <td>relatie naar medicatieafspraak (Id: MBH_200_weekdagen_MA (urn:oid:2.16.840.1.113883.2.4.3.11.999.77.16076005.1))</td>
                </tr>
                <tr>
                  <th>Dosering</th>
                  <td>
                    <div>Instructie: <ul>
                        <li>
                          <span title="voor de nacht (1128 - nhg-tabel-25-gebruiksvoorschrift#aanvullend-numeriek)">voor de nacht</span>
                        </li>
                        <li>
                          <span title="aanbrengen (1018 - nhg-tabel-25-gebruiksvoorschrift#aanvullend-numeriek)">aanbrengen</span>
                        </li>
                      </ul>
                    </div>
                    <div>Timing: <div>, op maandag, woensdag, vrijdag</div>
                    </div>
                    <div>Toedieningsweg: <span title="cutaan (53 - G-Standaard thesaurus subtabel 0007)">cutaan</span>
                    </div>
                  </td>
                </tr>
              </tbody>
            </table>
          </div>
        </text>
        <extension url="http://nictiz.nl/fhir/StructureDefinition/ext-RenderedDosageInstruction">
          <valueString value="Vanaf T, tot en met T + 14 dagen, op maandag, woensdag en vrijdag, voor de nacht, aanbrengen, cutaan"/>
        </extension>
        <extension url="http://nictiz.nl/fhir/StructureDefinition/ext-MedicationUse2.Prescriber">
          <valueReference>
            <reference value="urn:uuid:c33f04ce-6a95-11ec-0000-020000000000"/>
            <type value="PractitionerRole"/>
            <display value="Healthcare professional (role), Peter van Pulver, Huisartsen, niet nader gespecificeerd"/>
          </valueReference>
        </extension>
        <extension url="http://nictiz.nl/fhir/StructureDefinition/ext-AsAgreedIndicator">
          <valueBoolean value="true"/>
        </extension>
        <extension url="http://nictiz.nl/fhir/StructureDefinition/ext-PharmaceuticalTreatment.Identifier">
          <valueIdentifier>
            <system value="urn:oid:2.16.840.1.113883.2.4.3.11.999.77.1.1"/>
            <value value="MBH_200_weekdagen"/>
          </valueIdentifier>
        </extension>
        <extension url="http://nictiz.nl/fhir/StructureDefinition/ext-MedicationUse2.Author">
          <valueReference>
            <reference value="urn:uuid:c33f04ce-6a95-11ec-0000-020000000000"/>
            <type value="PractitionerRole"/>
            <display value="Healthcare professional (role), Peter van Pulver, Huisartsen, niet nader gespecificeerd"/>
          </valueReference>
        </extension>
        <identifier>
          <system value="urn:oid:2.16.840.1.113883.2.4.3.11.999.77.6.1"/>
          <value value="MBH_200_weekdagen_MGB"/>
        </identifier>
        <status value="active"/>
        <category>
          <coding>
            <system value="http://snomed.info/sct"/>
            <code value="422979000"/>
            <display value="bevinding betreffende gedrag met betrekking tot medicatieregime"/>
          </coding>
        </category>
        <medicationReference>
          <reference value="urn:uuid:c33f07bc-6a95-11ec-0000-020000000000"/>
          <type value="Medication"/>
          <display value="IMIQUIMOD 50MG/G CREME"/>
        </medicationReference>
        <subject>
          <reference value="urn:uuid:c33f04b0-6a95-11ec-0000-020000000000"/>
          <type value="Patient"/>
          <display value="Patient, M. XXX_Rambaldo"/>
        </subject>
        <effectivePeriod>
          <start value="${DATE, T, D, +0}T00:00:00+02:00"/>
          <end value="${DATE, T, D, +14}T23:59:59+02:00"/>
        </effectivePeriod>
        <dateAsserted value="${DATE, T, D, +14}T23:59:59+02:00"/>
        <informationSource>
          <reference value="urn:uuid:c33f04b0-6a95-11ec-0000-020000000000"/>
          <type value="Patient"/>
          <display value="Patient, M. XXX_Rambaldo"/>
        </informationSource>
        <derivedFrom>
          <extension url="http://nictiz.nl/fhir/StructureDefinition/ext-ResourceCategory">
            <valueCodeableConcept>
              <coding>
                <system value="http://snomed.info/sct"/>
                <code value="33633005"/>
                <display value="voorschrijven"/>
              </coding>
            </valueCodeableConcept>
          </extension>
          <identifier>
            <system value="urn:oid:2.16.840.1.113883.2.4.3.11.999.77.16076005.1"/>
            <value value="MBH_200_weekdagen_MA"/>
          </identifier>
          <display value="relatie naar medicatieafspraak"/>
        </derivedFrom>
        <dosage>
          <additionalInstruction>
            <coding>
              <system value="https://referentiemodel.nhg.org/tabellen/nhg-tabel-25-gebruiksvoorschrift#aanvullend-numeriek"/>
              <code value="1128"/>
              <display value="voor de nacht"/>
            </coding>
          </additionalInstruction>
          <additionalInstruction>
            <coding>
              <system value="https://referentiemodel.nhg.org/tabellen/nhg-tabel-25-gebruiksvoorschrift#aanvullend-numeriek"/>
              <code value="1018"/>
              <display value="aanbrengen"/>
            </coding>
          </additionalInstruction>
          <timing>
            <repeat>
              <dayOfWeek value="mon"/>
              <dayOfWeek value="wed"/>
              <dayOfWeek value="fri"/>
            </repeat>
          </timing>
          <route>
            <coding>
              <system value="urn:oid:2.16.840.1.113883.2.4.4.9"/>
              <code value="53"/>
              <display value="cutaan"/>
            </coding>
          </route>
        </dosage>
      </MedicationStatement>
    </resource>
    <request>
      <method value="POST"/>
      <url value="MedicationStatement"/>
    </request>
  </entry>
  <entry>
    <fullUrl value="urn:uuid:c33f05fa-6a95-11ec-0000-020000000000"/>
    <resource>
      <MedicationStatement>
        <meta>
          <profile value="http://nictiz.nl/fhir/StructureDefinition/mp-MedicationUse2"/>
        </meta>
        <text>
          <status value="extensions"/>
          <div xmlns="http://www.w3.org/1999/xhtml">
            <table>
              <caption>MedicationStatement. Subject: Patient, M. XXX_Rambaldo. Id: MBH_200_dagdeel_MGB (urn:oid:2.16.840.1.113883.2.4.3.11.999.77.6.1), Categorie: <span title="bevinding betreffende gedrag met betrekking tot medicatieregime (422979000 - SNOMED CT)">bevinding betreffende gedrag met betrekking tot medicatieregime</span>, Status: actief</caption>
              <tbody>
                <tr>
                  <th>Medicatie</th>
                  <td>EZETIMIB/SIMVASTATINE 10/20</td>
                </tr>
                <tr>
                  <th>Datum/tijd</th>
                  <td>${DATE, T, D, +0}T00:00:00+02:00 - ${DATE, T, D, +14}T23:59:59+02:00</td>
                </tr>
                <tr>
                  <th>Informant</th>
                  <td>${DATE, T, D, +14}T23:59:59+02:00 - Patient, M. XXX_Rambaldo</td>
                </tr>
                <tr>
                  <th>Ondersteunende informatie</th>
                  <td>relatie naar medicatieafspraak (Id: MBH_200_dagdeel_MA (urn:oid:2.16.840.1.113883.2.4.3.11.999.77.16076005.1))</td>
                </tr>
                <tr>
                  <th>Dosering</th>
                  <td>
                    <div>Timing: <div>EVE</div>
                    </div>
                    <div>Toedieningsweg: <span title="oraal (9 - G-Standaard thesaurus subtabel 0007)">oraal</span>
                    </div>
                    <div>Dosering: doseAndRate TODO</div>
                  </td>
                </tr>
              </tbody>
            </table>
          </div>
        </text>
        <extension url="http://nictiz.nl/fhir/StructureDefinition/ext-RenderedDosageInstruction">
          <valueString value="Vanaf T, tot en met T + 14 dagen, 1 stuk 's avonds, oraal"/>
        </extension>
        <extension url="http://nictiz.nl/fhir/StructureDefinition/ext-MedicationUse2.Prescriber">
          <valueReference>
            <reference value="urn:uuid:c33f04ce-6a95-11ec-0000-020000000000"/>
            <type value="PractitionerRole"/>
            <display value="Healthcare professional (role), Peter van Pulver, Huisartsen, niet nader gespecificeerd"/>
          </valueReference>
        </extension>
        <extension url="http://nictiz.nl/fhir/StructureDefinition/ext-AsAgreedIndicator">
          <valueBoolean value="true"/>
        </extension>
        <extension url="http://nictiz.nl/fhir/StructureDefinition/ext-PharmaceuticalTreatment.Identifier">
          <valueIdentifier>
            <system value="urn:oid:2.16.840.1.113883.2.4.3.11.999.77.1.1"/>
            <value value="MBH_200_dagdeel"/>
          </valueIdentifier>
        </extension>
        <extension url="http://nictiz.nl/fhir/StructureDefinition/ext-MedicationUse2.Author">
          <valueReference>
            <reference value="urn:uuid:c33f04ce-6a95-11ec-0000-020000000000"/>
            <type value="PractitionerRole"/>
            <display value="Healthcare professional (role), Peter van Pulver, Huisartsen, niet nader gespecificeerd"/>
          </valueReference>
        </extension>
        <identifier>
          <system value="urn:oid:2.16.840.1.113883.2.4.3.11.999.77.6.1"/>
          <value value="MBH_200_dagdeel_MGB"/>
        </identifier>
        <status value="active"/>
        <category>
          <coding>
            <system value="http://snomed.info/sct"/>
            <code value="422979000"/>
            <display value="bevinding betreffende gedrag met betrekking tot medicatieregime"/>
          </coding>
        </category>
        <medicationReference>
          <reference value="urn:uuid:c33f07da-6a95-11ec-0000-020000000000"/>
          <type value="Medication"/>
          <display value="EZETIMIB/SIMVASTATINE 10/20"/>
        </medicationReference>
        <subject>
          <reference value="urn:uuid:c33f04b0-6a95-11ec-0000-020000000000"/>
          <type value="Patient"/>
          <display value="Patient, M. XXX_Rambaldo"/>
        </subject>
        <effectivePeriod>
          <start value="${DATE, T, D, +0}T00:00:00+02:00"/>
          <end value="${DATE, T, D, +14}T23:59:59+02:00"/>
        </effectivePeriod>
        <dateAsserted value="${DATE, T, D, +14}T23:59:59+02:00"/>
        <informationSource>
          <reference value="urn:uuid:c33f04b0-6a95-11ec-0000-020000000000"/>
          <type value="Patient"/>
          <display value="Patient, M. XXX_Rambaldo"/>
        </informationSource>
        <derivedFrom>
          <extension url="http://nictiz.nl/fhir/StructureDefinition/ext-ResourceCategory">
            <valueCodeableConcept>
              <coding>
                <system value="http://snomed.info/sct"/>
                <code value="33633005"/>
                <display value="voorschrijven"/>
              </coding>
            </valueCodeableConcept>
          </extension>
          <identifier>
            <system value="urn:oid:2.16.840.1.113883.2.4.3.11.999.77.16076005.1"/>
            <value value="MBH_200_dagdeel_MA"/>
          </identifier>
          <display value="relatie naar medicatieafspraak"/>
        </derivedFrom>
        <dosage>
          <timing>
            <repeat>
              <when value="EVE"/>
            </repeat>
          </timing>
          <route>
            <coding>
              <system value="urn:oid:2.16.840.1.113883.2.4.4.9"/>
              <code value="9"/>
              <display value="oraal"/>
            </coding>
          </route>
          <doseAndRate>
            <doseQuantity>
              <extension url="http://hl7.org/fhir/StructureDefinition/iso21090-PQ-translation">
                <valueQuantity>
                  <value value="1"/>
                  <unit value="stuk"/>
                  <system value="urn:oid:2.16.840.1.113883.2.4.4.1.900.2"/>
                  <code value="245"/>
                </valueQuantity>
              </extension>
              <value value="1"/>
              <unit value="stuk"/>
              <system value="http://unitsofmeasure.org"/>
              <code value="1"/>
            </doseQuantity>
          </doseAndRate>
        </dosage>
      </MedicationStatement>
    </resource>
    <request>
      <method value="POST"/>
      <url value="MedicationStatement"/>
    </request>
  </entry>
  <entry>
    <fullUrl value="urn:uuid:c33f0618-6a95-11ec-0000-020000000000"/>
    <resource>
      <MedicationStatement>
        <meta>
          <profile value="http://nictiz.nl/fhir/StructureDefinition/mp-MedicationUse2"/>
        </meta>
        <text>
          <status value="extensions"/>
          <div xmlns="http://www.w3.org/1999/xhtml">
            <table>
              <caption>MedicationStatement. Subject: Patient, M. XXX_Rambaldo. Id: MBH_200_cyclischschema_MGB (urn:oid:2.16.840.1.113883.2.4.3.11.999.77.6.1), Categorie: <span title="bevinding betreffende gedrag met betrekking tot medicatieregime (422979000 - SNOMED CT)">bevinding betreffende gedrag met betrekking tot medicatieregime</span>, Status: actief</caption>
              <tbody>
                <tr>
                  <th>Medicatie</th>
                  <td>ETHINYLESTRADIOL/DESOGESTREL TABLET 30/150UG</td>
                </tr>
                <tr>
                  <th>Datum/tijd</th>
                  <td>${DATE, T, D, +0}T00:00:00+02:00 - ${DATE, T, D, +14}T23:59:59+02:00</td>
                </tr>
                <tr>
                  <th>Informant</th>
                  <td>${DATE, T, D, +14}T23:59:59+02:00 - Patient, M. XXX_Rambaldo</td>
                </tr>
                <tr>
                  <th>Ondersteunende informatie</th>
                  <td>relatie naar medicatieafspraak (Id: MBH_200_cyclischschema_MA (urn:oid:2.16.840.1.113883.2.4.3.11.999.77.16076005.1))</td>
                </tr>
                <tr>
                  <th>Dosering</th>
                  <td>
                    <div>Timing: <div>21 dag, eenmalig per dag</div>
                    </div>
                    <div>Toedieningsweg: <span title="oraal (9 - G-Standaard thesaurus subtabel 0007)">oraal</span>
                    </div>
                    <div>Dosering: doseAndRate TODO</div>
                  </td>
                </tr>
              </tbody>
            </table>
          </div>
        </text>
        <extension url="http://nictiz.nl/fhir/StructureDefinition/ext-RenderedDosageInstruction">
          <valueString value="Vanaf T, tot en met T + 14 dagen, cyclus van 28 dagen: steeds gedurende 21 dagen 1 maal per dag 1 stuk, oraal"/>
        </extension>
        <extension url="http://nictiz.nl/fhir/StructureDefinition/ext-MedicationUse2.Prescriber">
          <valueReference>
            <reference value="urn:uuid:c33f04ce-6a95-11ec-0000-020000000000"/>
            <type value="PractitionerRole"/>
            <display value="Healthcare professional (role), Peter van Pulver, Huisartsen, niet nader gespecificeerd"/>
          </valueReference>
        </extension>
        <extension url="http://nictiz.nl/fhir/StructureDefinition/ext-AsAgreedIndicator">
          <valueBoolean value="true"/>
        </extension>
        <extension url="http://nictiz.nl/fhir/StructureDefinition/ext-PharmaceuticalTreatment.Identifier">
          <valueIdentifier>
            <system value="urn:oid:2.16.840.1.113883.2.4.3.11.999.77.1.1"/>
            <value value="MBH_200_cyclischschema"/>
          </valueIdentifier>
        </extension>
        <extension url="http://nictiz.nl/fhir/StructureDefinition/ext-MedicationUse2.Author">
          <valueReference>
            <reference value="urn:uuid:c33f04ce-6a95-11ec-0000-020000000000"/>
            <type value="PractitionerRole"/>
            <display value="Healthcare professional (role), Peter van Pulver, Huisartsen, niet nader gespecificeerd"/>
          </valueReference>
        </extension>
        <modifierExtension url="http://nictiz.nl/fhir/StructureDefinition/ext-InstructionsForUse.RepeatPeriodCyclicalSchedule">
          <valueDuration>
            <value value="28"/>
            <unit value="dag"/>
            <system value="http://unitsofmeasure.org"/>
            <code value="d"/>
          </valueDuration>
        </modifierExtension>
        <identifier>
          <system value="urn:oid:2.16.840.1.113883.2.4.3.11.999.77.6.1"/>
          <value value="MBH_200_cyclischschema_MGB"/>
        </identifier>
        <status value="active"/>
        <category>
          <coding>
            <system value="http://snomed.info/sct"/>
            <code value="422979000"/>
            <display value="bevinding betreffende gedrag met betrekking tot medicatieregime"/>
          </coding>
        </category>
        <medicationReference>
          <reference value="urn:uuid:c33f07f8-6a95-11ec-0000-020000000000"/>
          <type value="Medication"/>
          <display value="ETHINYLESTRADIOL/DESOGESTREL TABLET 30/150UG"/>
        </medicationReference>
        <subject>
          <reference value="urn:uuid:c33f04b0-6a95-11ec-0000-020000000000"/>
          <type value="Patient"/>
          <display value="Patient, M. XXX_Rambaldo"/>
        </subject>
        <effectivePeriod>
          <start value="${DATE, T, D, +0}T00:00:00+02:00"/>
          <end value="${DATE, T, D, +14}T23:59:59+02:00"/>
        </effectivePeriod>
        <dateAsserted value="${DATE, T, D, +14}T23:59:59+02:00"/>
        <informationSource>
          <reference value="urn:uuid:c33f04b0-6a95-11ec-0000-020000000000"/>
          <type value="Patient"/>
          <display value="Patient, M. XXX_Rambaldo"/>
        </informationSource>
        <derivedFrom>
          <extension url="http://nictiz.nl/fhir/StructureDefinition/ext-ResourceCategory">
            <valueCodeableConcept>
              <coding>
                <system value="http://snomed.info/sct"/>
                <code value="33633005"/>
                <display value="voorschrijven"/>
              </coding>
            </valueCodeableConcept>
          </extension>
          <identifier>
            <system value="urn:oid:2.16.840.1.113883.2.4.3.11.999.77.16076005.1"/>
            <value value="MBH_200_cyclischschema_MA"/>
          </identifier>
          <display value="relatie naar medicatieafspraak"/>
        </derivedFrom>
        <dosage>
          <timing>
            <repeat>
              <boundsDuration>
                <value value="21"/>
                <unit value="dag"/>
                <system value="http://unitsofmeasure.org"/>
                <code value="d"/>
              </boundsDuration>
              <frequency value="1"/>
              <period value="1"/>
              <periodUnit value="d"/>
            </repeat>
          </timing>
          <route>
            <coding>
              <system value="urn:oid:2.16.840.1.113883.2.4.4.9"/>
              <code value="9"/>
              <display value="oraal"/>
            </coding>
          </route>
          <doseAndRate>
            <doseQuantity>
              <extension url="http://hl7.org/fhir/StructureDefinition/iso21090-PQ-translation">
                <valueQuantity>
                  <value value="1"/>
                  <unit value="stuk"/>
                  <system value="urn:oid:2.16.840.1.113883.2.4.4.1.900.2"/>
                  <code value="245"/>
                </valueQuantity>
              </extension>
              <value value="1"/>
              <unit value="stuk"/>
              <system value="http://unitsofmeasure.org"/>
              <code value="1"/>
            </doseQuantity>
          </doseAndRate>
        </dosage>
      </MedicationStatement>
    </resource>
    <request>
      <method value="POST"/>
      <url value="MedicationStatement"/>
    </request>
  </entry>
  <entry>
    <fullUrl value="urn:uuid:c33f0636-6a95-11ec-0000-020000000000"/>
    <resource>
      <MedicationStatement>
        <meta>
          <profile value="http://nictiz.nl/fhir/StructureDefinition/mp-MedicationUse2"/>
        </meta>
        <text>
          <status value="extensions"/>
          <div xmlns="http://www.w3.org/1999/xhtml">
            <table>
              <caption>MedicationStatement. Subject: Patient, M. XXX_Rambaldo. Id: MBH_200_afbouwschema_MGB (urn:oid:2.16.840.1.113883.2.4.3.11.999.77.6.1), Categorie: <span title="bevinding betreffende gedrag met betrekking tot medicatieregime (422979000 - SNOMED CT)">bevinding betreffende gedrag met betrekking tot medicatieregime</span>, Status: actief</caption>
              <tbody>
                <tr>
                  <th>Medicatie</th>
                  <td>Fusidinezuur creme 20mg/g</td>
                </tr>
                <tr>
                  <th>Datum/tijd</th>
                  <td>${DATE, T, D, +0}T00:00:00+02:00 - ${DATE, T, D, +21}T23:59:59+02:00</td>
                </tr>
                <tr>
                  <th>Informant</th>
                  <td>${DATE, T, D, +21}T23:59:59+02:00 - Patient, M. XXX_Rambaldo</td>
                </tr>
                <tr>
                  <th>Ondersteunende informatie</th>
                  <td>relatie naar medicatieafspraak (Id: MBH_200_afbouwschema_MA (urn:oid:2.16.840.1.113883.2.4.3.11.999.77.16076005.1))</td>
                </tr>
                <tr>
                  <th>Dosering</th>
                  <td>
                    <div>Volgnummer: 1</div>
                    <div>Timing: <div>2 week, eenmalig per dag</div>
                    </div>
                    <div>Toedieningsweg: <span title="cutaan (53 - G-Standaard thesaurus subtabel 0007)">cutaan</span>
                    </div>
                    <div>Dosering: doseAndRate TODO</div>
                  </td>
                </tr>
                <tr>
                  <th>Dosering</th>
                  <td>
                    <div>Volgnummer: 2</div>
                    <div>Timing: <div>3 week, eenmalig per dag</div>
                    </div>
                    <div>Toedieningsweg: <span title="cutaan (53 - G-Standaard thesaurus subtabel 0007)">cutaan</span>
                    </div>
                    <div>Dosering: doseAndRate TODO</div>
                  </td>
                </tr>
                <tr>
                  <th>Dosering</th>
                  <td>
                    <div>Volgnummer: 3</div>
                    <div>Timing: <div>6 dag, eenmalig per dag</div>
                    </div>
                    <div>Toedieningsweg: <span title="cutaan (53 - G-Standaard thesaurus subtabel 0007)">cutaan</span>
                    </div>
                    <div>Dosering: doseAndRate TODO</div>
                  </td>
                </tr>
              </tbody>
            </table>
          </div>
        </text>
        <extension url="http://nictiz.nl/fhir/StructureDefinition/ext-RenderedDosageInstruction">
          <valueString value="Vanaf T, tot en met T + 21 dagen, eerst gedurende 2 weken 1 maal per dag 3 gram, dan gedurende 3 weken 1 maal per dag 2 gram, dan gedurende 6 dagen 1 maal per dag 1 gram, cutaan"/>
        </extension>
        <extension url="http://nictiz.nl/fhir/StructureDefinition/ext-MedicationUse2.Prescriber">
          <valueReference>
            <reference value="urn:uuid:c33f04ce-6a95-11ec-0000-020000000000"/>
            <type value="PractitionerRole"/>
            <display value="Healthcare professional (role), Peter van Pulver, Huisartsen, niet nader gespecificeerd"/>
          </valueReference>
        </extension>
        <extension url="http://nictiz.nl/fhir/StructureDefinition/ext-AsAgreedIndicator">
          <valueBoolean value="true"/>
        </extension>
        <extension url="http://nictiz.nl/fhir/StructureDefinition/ext-PharmaceuticalTreatment.Identifier">
          <valueIdentifier>
            <system value="urn:oid:2.16.840.1.113883.2.4.3.11.999.77.1.1"/>
            <value value="MBH_200_afbouwschema"/>
          </valueIdentifier>
        </extension>
        <extension url="http://nictiz.nl/fhir/StructureDefinition/ext-MedicationUse2.Author">
          <valueReference>
            <reference value="urn:uuid:c33f04ce-6a95-11ec-0000-020000000000"/>
            <type value="PractitionerRole"/>
            <display value="Healthcare professional (role), Peter van Pulver, Huisartsen, niet nader gespecificeerd"/>
          </valueReference>
        </extension>
        <identifier>
          <system value="urn:oid:2.16.840.1.113883.2.4.3.11.999.77.6.1"/>
          <value value="MBH_200_afbouwschema_MGB"/>
        </identifier>
        <status value="active"/>
        <category>
          <coding>
            <system value="http://snomed.info/sct"/>
            <code value="422979000"/>
            <display value="bevinding betreffende gedrag met betrekking tot medicatieregime"/>
          </coding>
        </category>
        <medicationReference>
          <reference value="urn:uuid:c33f0816-6a95-11ec-0000-020000000000"/>
          <type value="Medication"/>
          <display value="Fusidinezuur creme 20mg/g"/>
        </medicationReference>
        <subject>
          <reference value="urn:uuid:c33f04b0-6a95-11ec-0000-020000000000"/>
          <type value="Patient"/>
          <display value="Patient, M. XXX_Rambaldo"/>
        </subject>
        <effectivePeriod>
          <start value="${DATE, T, D, +0}T00:00:00+02:00"/>
          <end value="${DATE, T, D, +21}T23:59:59+02:00"/>
        </effectivePeriod>
        <dateAsserted value="${DATE, T, D, +21}T23:59:59+02:00"/>
        <informationSource>
          <reference value="urn:uuid:c33f04b0-6a95-11ec-0000-020000000000"/>
          <type value="Patient"/>
          <display value="Patient, M. XXX_Rambaldo"/>
        </informationSource>
        <derivedFrom>
          <extension url="http://nictiz.nl/fhir/StructureDefinition/ext-ResourceCategory">
            <valueCodeableConcept>
              <coding>
                <system value="http://snomed.info/sct"/>
                <code value="33633005"/>
                <display value="voorschrijven"/>
              </coding>
            </valueCodeableConcept>
          </extension>
          <identifier>
            <system value="urn:oid:2.16.840.1.113883.2.4.3.11.999.77.16076005.1"/>
            <value value="MBH_200_afbouwschema_MA"/>
          </identifier>
          <display value="relatie naar medicatieafspraak"/>
        </derivedFrom>
        <dosage>
          <sequence value="1"/>
          <timing>
            <repeat>
              <boundsDuration>
                <value value="2"/>
                <unit value="week"/>
                <system value="http://unitsofmeasure.org"/>
                <code value="wk"/>
              </boundsDuration>
              <frequency value="1"/>
              <period value="1"/>
              <periodUnit value="d"/>
            </repeat>
          </timing>
          <route>
            <coding>
              <system value="urn:oid:2.16.840.1.113883.2.4.4.9"/>
              <code value="53"/>
              <display value="cutaan"/>
            </coding>
          </route>
          <doseAndRate>
            <doseQuantity>
              <extension url="http://hl7.org/fhir/StructureDefinition/iso21090-PQ-translation">
                <valueQuantity>
                  <value value="3"/>
                  <unit value="gram"/>
                  <system value="urn:oid:2.16.840.1.113883.2.4.4.1.900.2"/>
                  <code value="215"/>
                </valueQuantity>
              </extension>
              <value value="3"/>
              <unit value="gram"/>
              <system value="http://unitsofmeasure.org"/>
              <code value="g"/>
            </doseQuantity>
          </doseAndRate>
        </dosage>
        <dosage>
          <sequence value="2"/>
          <timing>
            <repeat>
              <boundsDuration>
                <value value="3"/>
                <unit value="week"/>
                <system value="http://unitsofmeasure.org"/>
                <code value="wk"/>
              </boundsDuration>
              <frequency value="1"/>
              <period value="1"/>
              <periodUnit value="d"/>
            </repeat>
          </timing>
          <route>
            <coding>
              <system value="urn:oid:2.16.840.1.113883.2.4.4.9"/>
              <code value="53"/>
              <display value="cutaan"/>
            </coding>
          </route>
          <doseAndRate>
            <doseQuantity>
              <extension url="http://hl7.org/fhir/StructureDefinition/iso21090-PQ-translation">
                <valueQuantity>
                  <value value="2"/>
                  <unit value="gram"/>
                  <system value="urn:oid:2.16.840.1.113883.2.4.4.1.900.2"/>
                  <code value="215"/>
                </valueQuantity>
              </extension>
              <value value="2"/>
              <unit value="gram"/>
              <system value="http://unitsofmeasure.org"/>
              <code value="g"/>
            </doseQuantity>
          </doseAndRate>
        </dosage>
        <dosage>
          <sequence value="3"/>
          <timing>
            <repeat>
              <boundsDuration>
                <value value="6"/>
                <unit value="dag"/>
                <system value="http://unitsofmeasure.org"/>
                <code value="d"/>
              </boundsDuration>
              <frequency value="1"/>
              <period value="1"/>
              <periodUnit value="d"/>
            </repeat>
          </timing>
          <route>
            <coding>
              <system value="urn:oid:2.16.840.1.113883.2.4.4.9"/>
              <code value="53"/>
              <display value="cutaan"/>
            </coding>
          </route>
          <doseAndRate>
            <doseQuantity>
              <extension url="http://hl7.org/fhir/StructureDefinition/iso21090-PQ-translation">
                <valueQuantity>
                  <value value="1"/>
                  <unit value="gram"/>
                  <system value="urn:oid:2.16.840.1.113883.2.4.4.1.900.2"/>
                  <code value="215"/>
                </valueQuantity>
              </extension>
              <value value="1"/>
              <unit value="gram"/>
              <system value="http://unitsofmeasure.org"/>
              <code value="g"/>
            </doseQuantity>
          </doseAndRate>
        </dosage>
      </MedicationStatement>
    </resource>
    <request>
      <method value="POST"/>
      <url value="MedicationStatement"/>
    </request>
  </entry>
  <entry>
    <fullUrl value="urn:uuid:c33f0654-6a95-11ec-0000-020000000000"/>
    <resource>
      <MedicationStatement>
        <meta>
          <profile value="http://nictiz.nl/fhir/StructureDefinition/mp-MedicationUse2"/>
        </meta>
        <text>
          <status value="extensions"/>
          <div xmlns="http://www.w3.org/1999/xhtml">
            <table>
              <caption>MedicationStatement. Subject: Patient, M. XXX_Rambaldo. Id: MBH_200_variabelehoeveelheidenmaximum_MGB (urn:oid:2.16.840.1.113883.2.4.3.11.999.77.6.1), Categorie: <span title="bevinding betreffende gedrag met betrekking tot medicatieregime (422979000 - SNOMED CT)">bevinding betreffende gedrag met betrekking tot medicatieregime</span>, Status: actief</caption>
              <tbody>
                <tr>
                  <th>Medicatie</th>
                  <td>CODEINE TABLET 10MG (FOSFAAT)</td>
                </tr>
                <tr>
                  <th>Datum/tijd</th>
                  <td>${DATE, T, D, +0}T00:00:00+02:00 - ${DATE, T, D, +21}T23:59:59+02:00</td>
                </tr>
                <tr>
                  <th>Informant</th>
                  <td>${DATE, T, D, +21}T23:59:59+02:00 - Patient, M. XXX_Rambaldo</td>
                </tr>
                <tr>
                  <th>Ondersteunende informatie</th>
                  <td>relatie naar medicatieafspraak (Id: MBH_200_variabelehoeveelheidenmaximum_MA (urn:oid:2.16.840.1.113883.2.4.3.11.999.77.16076005.1))</td>
                </tr>
                <tr>
                  <th>Dosering</th>
                  <td>
                    <div>Zo nodig: <span title="Bij hoest (1387 - nhg-tabel-25-gebruiksvoorschrift#aanvullend-numeriek)">Bij hoest</span>
                    </div>
                    <div>Toedieningsweg: <span title="oraal (9 - G-Standaard thesaurus subtabel 0007)">oraal</span>
                    </div>
                    <div>Dosering: doseAndRate TODO</div>
                    <div>Max dosering: 6 stuk / 1 dag (per period)</div>
                  </td>
                </tr>
              </tbody>
            </table>
          </div>
        </text>
        <extension url="http://nictiz.nl/fhir/StructureDefinition/ext-RenderedDosageInstruction">
          <valueString value="Vanaf T, tot en met T + 21 dagen, Bij hoest 1 à 2 stuks , maximaal 6 stuks per dag, oraal"/>
        </extension>
        <extension url="http://nictiz.nl/fhir/StructureDefinition/ext-MedicationUse2.Prescriber">
          <valueReference>
            <reference value="urn:uuid:c33f04ce-6a95-11ec-0000-020000000000"/>
            <type value="PractitionerRole"/>
            <display value="Healthcare professional (role), Peter van Pulver, Huisartsen, niet nader gespecificeerd"/>
          </valueReference>
        </extension>
        <extension url="http://nictiz.nl/fhir/StructureDefinition/ext-AsAgreedIndicator">
          <valueBoolean value="true"/>
        </extension>
        <extension url="http://nictiz.nl/fhir/StructureDefinition/ext-PharmaceuticalTreatment.Identifier">
          <valueIdentifier>
            <system value="urn:oid:2.16.840.1.113883.2.4.3.11.999.77.1.1"/>
            <value value="MBH_200_variabelehoeveelheidenmaximum"/>
          </valueIdentifier>
        </extension>
        <extension url="http://nictiz.nl/fhir/StructureDefinition/ext-MedicationUse2.Author">
          <valueReference>
            <reference value="urn:uuid:c33f04ce-6a95-11ec-0000-020000000000"/>
            <type value="PractitionerRole"/>
            <display value="Healthcare professional (role), Peter van Pulver, Huisartsen, niet nader gespecificeerd"/>
          </valueReference>
        </extension>
        <identifier>
          <system value="urn:oid:2.16.840.1.113883.2.4.3.11.999.77.6.1"/>
          <value value="MBH_200_variabelehoeveelheidenmaximum_MGB"/>
        </identifier>
        <status value="active"/>
        <category>
          <coding>
            <system value="http://snomed.info/sct"/>
            <code value="422979000"/>
            <display value="bevinding betreffende gedrag met betrekking tot medicatieregime"/>
          </coding>
        </category>
        <medicationReference>
          <reference value="urn:uuid:c33f0834-6a95-11ec-0000-020000000000"/>
          <type value="Medication"/>
          <display value="CODEINE TABLET 10MG (FOSFAAT)"/>
        </medicationReference>
        <subject>
          <reference value="urn:uuid:c33f04b0-6a95-11ec-0000-020000000000"/>
          <type value="Patient"/>
          <display value="Patient, M. XXX_Rambaldo"/>
        </subject>
        <effectivePeriod>
          <start value="${DATE, T, D, +0}T00:00:00+02:00"/>
          <end value="${DATE, T, D, +21}T23:59:59+02:00"/>
        </effectivePeriod>
        <dateAsserted value="${DATE, T, D, +21}T23:59:59+02:00"/>
        <informationSource>
          <reference value="urn:uuid:c33f04b0-6a95-11ec-0000-020000000000"/>
          <type value="Patient"/>
          <display value="Patient, M. XXX_Rambaldo"/>
        </informationSource>
        <derivedFrom>
          <extension url="http://nictiz.nl/fhir/StructureDefinition/ext-ResourceCategory">
            <valueCodeableConcept>
              <coding>
                <system value="http://snomed.info/sct"/>
                <code value="33633005"/>
                <display value="voorschrijven"/>
              </coding>
            </valueCodeableConcept>
          </extension>
          <identifier>
            <system value="urn:oid:2.16.840.1.113883.2.4.3.11.999.77.16076005.1"/>
            <value value="MBH_200_variabelehoeveelheidenmaximum_MA"/>
          </identifier>
          <display value="relatie naar medicatieafspraak"/>
        </derivedFrom>
        <dosage>
          <asNeededCodeableConcept>
            <coding>
              <system value="https://referentiemodel.nhg.org/tabellen/nhg-tabel-25-gebruiksvoorschrift#aanvullend-numeriek"/>
              <code value="1387"/>
              <display value="Bij hoest"/>
            </coding>
          </asNeededCodeableConcept>
          <route>
            <coding>
              <system value="urn:oid:2.16.840.1.113883.2.4.4.9"/>
              <code value="9"/>
              <display value="oraal"/>
            </coding>
          </route>
          <doseAndRate>
            <doseRange>
              <low>
                <extension url="http://hl7.org/fhir/StructureDefinition/iso21090-PQ-translation">
                  <valueQuantity>
                    <value value="1"/>
                    <unit value="stuk"/>
                    <system value="urn:oid:2.16.840.1.113883.2.4.4.1.900.2"/>
                    <code value="245"/>
                  </valueQuantity>
                </extension>
                <value value="1"/>
                <unit value="stuk"/>
                <system value="http://unitsofmeasure.org"/>
                <code value="1"/>
              </low>
              <high>
                <extension url="http://hl7.org/fhir/StructureDefinition/iso21090-PQ-translation">
                  <valueQuantity>
                    <value value="2"/>
                    <unit value="stuk"/>
                    <system value="urn:oid:2.16.840.1.113883.2.4.4.1.900.2"/>
                    <code value="245"/>
                  </valueQuantity>
                </extension>
                <value value="2"/>
                <unit value="stuk"/>
                <system value="http://unitsofmeasure.org"/>
                <code value="1"/>
              </high>
            </doseRange>
          </doseAndRate>
          <maxDosePerPeriod>
            <numerator>
              <extension url="http://hl7.org/fhir/StructureDefinition/iso21090-PQ-translation">
                <valueQuantity>
                  <value value="6"/>
                  <unit value="stuk"/>
                  <system value="urn:oid:2.16.840.1.113883.2.4.4.1.900.2"/>
                  <code value="245"/>
                </valueQuantity>
              </extension>
              <value value="6"/>
              <unit value="stuk"/>
              <system value="http://unitsofmeasure.org"/>
              <code value="1"/>
            </numerator>
            <denominator>
              <value value="1"/>
              <unit value="dag"/>
              <system value="http://unitsofmeasure.org"/>
              <code value="d"/>
            </denominator>
          </maxDosePerPeriod>
        </dosage>
      </MedicationStatement>
    </resource>
    <request>
      <method value="POST"/>
      <url value="MedicationStatement"/>
    </request>
  </entry>
  <entry>
    <fullUrl value="urn:uuid:c33f0672-6a95-11ec-0000-020000000000"/>
    <resource>
      <MedicationStatement>
        <meta>
          <profile value="http://nictiz.nl/fhir/StructureDefinition/mp-MedicationUse2"/>
        </meta>
        <text>
          <status value="extensions"/>
          <div xmlns="http://www.w3.org/1999/xhtml">
            <table>
              <caption>MedicationStatement. Subject: Patient, M. XXX_Rambaldo. Id: MBH_200_zonodig_MGB (urn:oid:2.16.840.1.113883.2.4.3.11.999.77.6.1), Categorie: <span title="bevinding betreffende gedrag met betrekking tot medicatieregime (422979000 - SNOMED CT)">bevinding betreffende gedrag met betrekking tot medicatieregime</span>, Status: actief</caption>
              <tbody>
                <tr>
                  <th>Medicatie</th>
                  <td>ACETYLSALICYLZUUR 100MG TAB</td>
                </tr>
                <tr>
                  <th>Datum/tijd</th>
                  <td>${DATE, T, D, +0}T00:00:00+02:00 - ${DATE, T, D, +14}T23:59:59+02:00</td>
                </tr>
                <tr>
                  <th>Informant</th>
                  <td>${DATE, T, D, +14}T23:59:59+02:00 - Patient, M. XXX_Rambaldo</td>
                </tr>
                <tr>
                  <th>Ondersteunende informatie</th>
                  <td>relatie naar medicatieafspraak (Id: MBH_200_zonodig_MA (urn:oid:2.16.840.1.113883.2.4.3.11.999.77.16076005.1))</td>
                </tr>
                <tr>
                  <th>Dosering</th>
                  <td>
                    <div>Timing: <div>eenmalig per dag</div>
                    </div>
                    <div>Zo nodig: <span title="Zo nodig (1137 - nhg-tabel-25-gebruiksvoorschrift#aanvullend-numeriek)">Zo nodig</span>
                    </div>
                    <div>Toedieningsweg: <span title="Oraal (9 - G-Standaard thesaurus subtabel 0007)">Oraal</span>
                    </div>
                    <div>Dosering: doseAndRate TODO</div>
                  </td>
                </tr>
              </tbody>
            </table>
          </div>
        </text>
        <extension url="http://nictiz.nl/fhir/StructureDefinition/ext-RenderedDosageInstruction">
          <valueString value="Vanaf T, tot en met T + 14 dagen, Zo nodig 1 maal per dag 1 stuk, Oraal"/>
        </extension>
        <extension url="http://nictiz.nl/fhir/StructureDefinition/ext-MedicationUse2.Prescriber">
          <valueReference>
            <reference value="urn:uuid:c33f04ce-6a95-11ec-0000-020000000000"/>
            <type value="PractitionerRole"/>
            <display value="Healthcare professional (role), Peter van Pulver, Huisartsen, niet nader gespecificeerd"/>
          </valueReference>
        </extension>
        <extension url="http://nictiz.nl/fhir/StructureDefinition/ext-AsAgreedIndicator">
          <valueBoolean value="true"/>
        </extension>
        <extension url="http://nictiz.nl/fhir/StructureDefinition/ext-PharmaceuticalTreatment.Identifier">
          <valueIdentifier>
            <system value="urn:oid:2.16.840.1.113883.2.4.3.11.999.77.1.1"/>
            <value value="MBH_200_zonodig"/>
          </valueIdentifier>
        </extension>
        <extension url="http://nictiz.nl/fhir/StructureDefinition/ext-MedicationUse2.Author">
          <valueReference>
            <reference value="urn:uuid:c33f04ce-6a95-11ec-0000-020000000000"/>
            <type value="PractitionerRole"/>
            <display value="Healthcare professional (role), Peter van Pulver, Huisartsen, niet nader gespecificeerd"/>
          </valueReference>
        </extension>
        <identifier>
          <system value="urn:oid:2.16.840.1.113883.2.4.3.11.999.77.6.1"/>
          <value value="MBH_200_zonodig_MGB"/>
        </identifier>
        <status value="active"/>
        <category>
          <coding>
            <system value="http://snomed.info/sct"/>
            <code value="422979000"/>
            <display value="bevinding betreffende gedrag met betrekking tot medicatieregime"/>
          </coding>
        </category>
        <medicationReference>
          <reference value="urn:uuid:c33f088e-6a95-11ec-0000-020000000000"/>
          <type value="Medication"/>
          <display value="ACETYLSALICYLZUUR 100MG TAB"/>
        </medicationReference>
        <subject>
          <reference value="urn:uuid:c33f04b0-6a95-11ec-0000-020000000000"/>
          <type value="Patient"/>
          <display value="Patient, M. XXX_Rambaldo"/>
        </subject>
        <effectivePeriod>
          <start value="${DATE, T, D, +0}T00:00:00+02:00"/>
          <end value="${DATE, T, D, +14}T23:59:59+02:00"/>
        </effectivePeriod>
        <dateAsserted value="${DATE, T, D, +14}T23:59:59+02:00"/>
        <informationSource>
          <reference value="urn:uuid:c33f04b0-6a95-11ec-0000-020000000000"/>
          <type value="Patient"/>
          <display value="Patient, M. XXX_Rambaldo"/>
        </informationSource>
        <derivedFrom>
          <extension url="http://nictiz.nl/fhir/StructureDefinition/ext-ResourceCategory">
            <valueCodeableConcept>
              <coding>
                <system value="http://snomed.info/sct"/>
                <code value="33633005"/>
                <display value="voorschrijven"/>
              </coding>
            </valueCodeableConcept>
          </extension>
          <identifier>
            <system value="urn:oid:2.16.840.1.113883.2.4.3.11.999.77.16076005.1"/>
            <value value="MBH_200_zonodig_MA"/>
          </identifier>
          <display value="relatie naar medicatieafspraak"/>
        </derivedFrom>
        <dosage>
          <timing>
            <repeat>
              <frequency value="1"/>
              <period value="1"/>
              <periodUnit value="d"/>
            </repeat>
          </timing>
          <asNeededCodeableConcept>
            <coding>
              <system value="https://referentiemodel.nhg.org/tabellen/nhg-tabel-25-gebruiksvoorschrift#aanvullend-numeriek"/>
              <code value="1137"/>
              <display value="Zo nodig"/>
            </coding>
          </asNeededCodeableConcept>
          <route>
            <coding>
              <system value="urn:oid:2.16.840.1.113883.2.4.4.9"/>
              <code value="9"/>
              <display value="Oraal"/>
            </coding>
          </route>
          <doseAndRate>
            <doseQuantity>
              <extension url="http://hl7.org/fhir/StructureDefinition/iso21090-PQ-translation">
                <valueQuantity>
                  <value value="1"/>
                  <unit value="stuk"/>
                  <system value="urn:oid:2.16.840.1.113883.2.4.4.1.900.2"/>
                  <code value="245"/>
                </valueQuantity>
              </extension>
              <value value="1"/>
              <unit value="stuk"/>
              <system value="http://unitsofmeasure.org"/>
              <code value="1"/>
            </doseQuantity>
          </doseAndRate>
        </dosage>
      </MedicationStatement>
    </resource>
    <request>
      <method value="POST"/>
      <url value="MedicationStatement"/>
    </request>
  </entry>
  <entry>
    <fullUrl value="urn:uuid:c33f0690-6a95-11ec-0000-020000000000"/>
    <resource>
      <MedicationStatement>
        <meta>
          <profile value="http://nictiz.nl/fhir/StructureDefinition/mp-MedicationUse2"/>
        </meta>
        <text>
          <status value="extensions"/>
          <div xmlns="http://www.w3.org/1999/xhtml">
            <table>
              <caption>MedicationStatement. Subject: Patient, M. XXX_Rambaldo. Id: MBH_200_tijdstippen_niet_flexibel_MGB (urn:oid:2.16.840.1.113883.2.4.3.11.999.77.6.1), Categorie: <span title="bevinding betreffende gedrag met betrekking tot medicatieregime (422979000 - SNOMED CT)">bevinding betreffende gedrag met betrekking tot medicatieregime</span>, Status: actief</caption>
              <tbody>
                <tr>
                  <th>Medicatie</th>
                  <td>METFORMINE 500MG TABLET</td>
                </tr>
                <tr>
                  <th>Datum/tijd</th>
                  <td>${DATE, T, D, +0}T00:00:00+02:00 - ${DATE, T, D, +7}T15:00:00+02:00</td>
                </tr>
                <tr>
                  <th>Informant</th>
                  <td>${DATE, T, D, +7}T16:00:00+02:00 - Patient, M. XXX_Rambaldo</td>
                </tr>
                <tr>
                  <th>Ondersteunende informatie</th>
                  <td>relatie naar medicatieafspraak (Id: MBH_200_tijdstippen_niet_flexibel_MA (urn:oid:2.16.840.1.113883.2.4.3.11.999.77.16076005.1))</td>
                </tr>
                <tr>
                  <th>Dosering</th>
                  <td>
                    <div>Timing: <div>09:00:00, 12:00:00, 15:00:00. Tijden zo precies mogelijk aanhouden</div>
                    </div>
                    <div>Dosering: doseAndRate TODO</div>
                  </td>
                </tr>
              </tbody>
            </table>
          </div>
        </text>
        <extension url="http://nictiz.nl/fhir/StructureDefinition/ext-RenderedDosageInstruction">
          <valueString value="Vanaf T, tot en met T + 7 dagen om 15:00 uur, elke dag om 09:00, 12:00 en 15:00 1 stuk - let op, tijden exact aanhouden"/>
        </extension>
        <extension url="http://nictiz.nl/fhir/StructureDefinition/ext-MedicationUse2.Prescriber">
          <valueReference>
            <reference value="urn:uuid:c33f04ce-6a95-11ec-0000-020000000000"/>
            <type value="PractitionerRole"/>
            <display value="Healthcare professional (role), Peter van Pulver, Huisartsen, niet nader gespecificeerd"/>
          </valueReference>
        </extension>
        <extension url="http://nictiz.nl/fhir/StructureDefinition/ext-AsAgreedIndicator">
          <valueBoolean value="true"/>
        </extension>
        <extension url="http://nictiz.nl/fhir/StructureDefinition/ext-PharmaceuticalTreatment.Identifier">
          <valueIdentifier>
            <system value="urn:oid:2.16.840.1.113883.2.4.3.11.999.77.1.1"/>
            <value value="MBH_200_tijdstippen_niet_flexibel"/>
          </valueIdentifier>
        </extension>
        <extension url="http://nictiz.nl/fhir/StructureDefinition/ext-MedicationUse2.Author">
          <valueReference>
            <reference value="urn:uuid:c33f04ce-6a95-11ec-0000-020000000000"/>
            <type value="PractitionerRole"/>
            <display value="Healthcare professional (role), Peter van Pulver, Huisartsen, niet nader gespecificeerd"/>
          </valueReference>
        </extension>
        <identifier>
          <system value="urn:oid:2.16.840.1.113883.2.4.3.11.999.77.6.1"/>
          <value value="MBH_200_tijdstippen_niet_flexibel_MGB"/>
        </identifier>
        <status value="active"/>
        <category>
          <coding>
            <system value="http://snomed.info/sct"/>
            <code value="422979000"/>
            <display value="bevinding betreffende gedrag met betrekking tot medicatieregime"/>
          </coding>
        </category>
        <medicationReference>
          <reference value="urn:uuid:c33f079e-6a95-11ec-0000-020000000000"/>
          <type value="Medication"/>
          <display value="METFORMINE 500MG TABLET"/>
        </medicationReference>
        <subject>
          <reference value="urn:uuid:c33f04b0-6a95-11ec-0000-020000000000"/>
          <type value="Patient"/>
          <display value="Patient, M. XXX_Rambaldo"/>
        </subject>
        <effectivePeriod>
          <start value="${DATE, T, D, +0}T00:00:00+02:00"/>
          <end value="${DATE, T, D, +7}T15:00:00+02:00"/>
        </effectivePeriod>
        <dateAsserted value="${DATE, T, D, +7}T16:00:00+02:00"/>
        <informationSource>
          <reference value="urn:uuid:c33f04b0-6a95-11ec-0000-020000000000"/>
          <type value="Patient"/>
          <display value="Patient, M. XXX_Rambaldo"/>
        </informationSource>
        <derivedFrom>
          <extension url="http://nictiz.nl/fhir/StructureDefinition/ext-ResourceCategory">
            <valueCodeableConcept>
              <coding>
                <system value="http://snomed.info/sct"/>
                <code value="33633005"/>
                <display value="voorschrijven"/>
              </coding>
            </valueCodeableConcept>
          </extension>
          <identifier>
            <system value="urn:oid:2.16.840.1.113883.2.4.3.11.999.77.16076005.1"/>
            <value value="MBH_200_tijdstippen_niet_flexibel_MA"/>
          </identifier>
          <display value="relatie naar medicatieafspraak"/>
        </derivedFrom>
        <dosage>
          <timing>
            <repeat>
              <extension url="http://hl7.org/fhir/StructureDefinition/timing-exact">
                <valueBoolean value="true"/>
              </extension>
              <timeOfDay value="09:00:00"/>
              <timeOfDay value="12:00:00"/>
              <timeOfDay value="15:00:00"/>
            </repeat>
          </timing>
          <doseAndRate>
            <doseQuantity>
              <extension url="http://hl7.org/fhir/StructureDefinition/iso21090-PQ-translation">
                <valueQuantity>
                  <value value="1"/>
                  <unit value="stuk"/>
                  <system value="urn:oid:2.16.840.1.113883.2.4.4.1.900.2"/>
                  <code value="245"/>
                </valueQuantity>
              </extension>
              <value value="1"/>
              <unit value="stuk"/>
              <system value="http://unitsofmeasure.org"/>
              <code value="1"/>
            </doseQuantity>
          </doseAndRate>
        </dosage>
      </MedicationStatement>
    </resource>
    <request>
      <method value="POST"/>
      <url value="MedicationStatement"/>
    </request>
  </entry>
  <entry>
    <fullUrl value="urn:uuid:c33f06ae-6a95-11ec-0000-020000000000"/>
    <resource>
      <MedicationStatement>
        <meta>
          <profile value="http://nictiz.nl/fhir/StructureDefinition/mp-MedicationUse2"/>
        </meta>
        <text>
          <status value="extensions"/>
          <div xmlns="http://www.w3.org/1999/xhtml">
            <table>
              <caption>MedicationStatement. Subject: Patient, M. XXX_Rambaldo. Id: MBH_200_toedieningssnelheid_MGB (urn:oid:2.16.840.1.113883.2.4.3.11.999.77.16076005.1), Categorie: <span title="bevinding betreffende gedrag met betrekking tot medicatieregime (422979000 - SNOMED CT)">bevinding betreffende gedrag met betrekking tot medicatieregime</span>, Status: actief</caption>
              <tbody>
                <tr>
                  <th>Medicatie</th>
                  <td>MORFINE INFVLST 5MG/ML CAS 100ML</td>
                </tr>
                <tr>
                  <th>Datum/tijd</th>
                  <td>${DATE, T, D, +0}T00:00:00+02:00 - ${DATE, T, D, +8}T23:59:59+02:00</td>
                </tr>
                <tr>
                  <th>Informant</th>
                  <td>${DATE, T, D, +8}T23:59:59+02:00 - Patient, M. XXX_Rambaldo</td>
                </tr>
                <tr>
                  <th>Ondersteunende informatie</th>
                  <td>relatie naar medicatieafspraak (Id: MBH_200_toedieningssnelheid_MA (urn:oid:2.16.840.1.113883.2.4.3.11.999.77.16076005.1))</td>
                </tr>
                <tr>
                  <th>Dosering</th>
                  <td>
                    <div>Toedieningsweg: <span title="parenteraal (10 - G-Standaard thesaurus subtabel 0007)">parenteraal</span>
                    </div>
                    <div>Dosering: doseAndRate TODO</div>
                  </td>
                </tr>
              </tbody>
            </table>
          </div>
        </text>
        <extension url="http://nictiz.nl/fhir/StructureDefinition/ext-RenderedDosageInstruction">
          <valueString value="Vanaf T, tot en met T + 8 dagen, toedieningssnelheid: maximaal 0.2 à 0.5 ml per uur, parenteraal"/>
        </extension>
        <extension url="http://nictiz.nl/fhir/StructureDefinition/ext-MedicationUse2.Prescriber">
          <valueReference>
            <reference value="urn:uuid:c33f04ce-6a95-11ec-0000-020000000000"/>
            <type value="PractitionerRole"/>
            <display value="Healthcare professional (role), Peter van Pulver, Huisartsen, niet nader gespecificeerd"/>
          </valueReference>
        </extension>
        <extension url="http://nictiz.nl/fhir/StructureDefinition/ext-AsAgreedIndicator">
          <valueBoolean value="true"/>
        </extension>
        <extension url="http://nictiz.nl/fhir/StructureDefinition/ext-PharmaceuticalTreatment.Identifier">
          <valueIdentifier>
            <system value="urn:oid:2.16.840.1.113883.2.4.3.11.999.77.1.1"/>
            <value value="MBH_200_toedieningssnelheid"/>
          </valueIdentifier>
        </extension>
        <extension url="http://nictiz.nl/fhir/StructureDefinition/ext-MedicationUse2.Author">
          <valueReference>
            <reference value="urn:uuid:c33f04ce-6a95-11ec-0000-020000000000"/>
            <type value="PractitionerRole"/>
            <display value="Healthcare professional (role), Peter van Pulver, Huisartsen, niet nader gespecificeerd"/>
          </valueReference>
        </extension>
        <identifier>
          <system value="urn:oid:2.16.840.1.113883.2.4.3.11.999.77.16076005.1"/>
          <value value="MBH_200_toedieningssnelheid_MGB"/>
        </identifier>
        <status value="active"/>
        <category>
          <coding>
            <system value="http://snomed.info/sct"/>
            <code value="422979000"/>
            <display value="bevinding betreffende gedrag met betrekking tot medicatieregime"/>
          </coding>
        </category>
        <medicationReference>
          <reference value="urn:uuid:c33f0852-6a95-11ec-0000-020000000000"/>
          <type value="Medication"/>
          <display value="MORFINE INFVLST 5MG/ML CAS 100ML"/>
        </medicationReference>
        <subject>
          <reference value="urn:uuid:c33f04b0-6a95-11ec-0000-020000000000"/>
          <type value="Patient"/>
          <display value="Patient, M. XXX_Rambaldo"/>
        </subject>
        <effectivePeriod>
          <start value="${DATE, T, D, +0}T00:00:00+02:00"/>
          <end value="${DATE, T, D, +8}T23:59:59+02:00"/>
        </effectivePeriod>
        <dateAsserted value="${DATE, T, D, +8}T23:59:59+02:00"/>
        <informationSource>
          <reference value="urn:uuid:c33f04b0-6a95-11ec-0000-020000000000"/>
          <type value="Patient"/>
          <display value="Patient, M. XXX_Rambaldo"/>
        </informationSource>
        <derivedFrom>
          <extension url="http://nictiz.nl/fhir/StructureDefinition/ext-ResourceCategory">
            <valueCodeableConcept>
              <coding>
                <system value="http://snomed.info/sct"/>
                <code value="33633005"/>
                <display value="voorschrijven"/>
              </coding>
            </valueCodeableConcept>
          </extension>
          <identifier>
            <system value="urn:oid:2.16.840.1.113883.2.4.3.11.999.77.16076005.1"/>
            <value value="MBH_200_toedieningssnelheid_MA"/>
          </identifier>
          <display value="relatie naar medicatieafspraak"/>
        </derivedFrom>
        <dosage>
          <route>
            <coding>
              <system value="urn:oid:2.16.840.1.113883.2.4.4.9"/>
              <code value="10"/>
              <display value="parenteraal"/>
            </coding>
          </route>
          <doseAndRate>
            <rateRange>
              <low>
                <value value="0.2"/>
                <unit value="ml/h"/>
                <system value="http://unitsofmeasure.org"/>
                <code value="ml/h"/>
              </low>
              <high>
                <value value="0.5"/>
                <unit value="ml/h"/>
                <system value="http://unitsofmeasure.org"/>
                <code value="ml/h"/>
              </high>
            </rateRange>
          </doseAndRate>
        </dosage>
      </MedicationStatement>
    </resource>
    <request>
      <method value="POST"/>
      <url value="MedicationStatement"/>
    </request>
  </entry>
  <entry>
    <fullUrl value="urn:uuid:c33f06cc-6a95-11ec-0000-020000000000"/>
    <resource>
      <MedicationStatement>
        <meta>
          <profile value="http://nictiz.nl/fhir/StructureDefinition/mp-MedicationUse2"/>
        </meta>
        <text>
          <status value="extensions"/>
          <div xmlns="http://www.w3.org/1999/xhtml">
            <table>
              <caption>MedicationStatement. Subject: Patient, M. XXX_Rambaldo. Id: MBH_200_toedieningsduur_MGB (urn:oid:2.16.840.1.113883.2.4.3.11.999.77.16076005.1), Categorie: <span title="bevinding betreffende gedrag met betrekking tot medicatieregime (422979000 - SNOMED CT)">bevinding betreffende gedrag met betrekking tot medicatieregime</span>, Status: actief</caption>
              <tbody>
                <tr>
                  <th>Medicatie</th>
                  <td>NITROGLYCERINE PLEISTER 5MG/24UUR (DEPONIT T)</td>
                </tr>
                <tr>
                  <th>Datum/tijd</th>
                  <td>${DATE, T, D, +0}T00:00:00+02:00 - ${DATE, T, D, +14}T12:00:00+02:00</td>
                </tr>
                <tr>
                  <th>Informant</th>
                  <td>${DATE, T, D, +14}T12:00:00+02:00 - Patient, M. XXX_Rambaldo</td>
                </tr>
                <tr>
                  <th>Ondersteunende informatie</th>
                  <td>relatie naar medicatieafspraak (Id: MBH_200_toedieningsduur_MA (urn:oid:2.16.840.1.113883.2.4.3.11.999.77.16076005.1))</td>
                </tr>
                <tr>
                  <th>Dosering</th>
                  <td>
                    <div>Timing: <div>16 uren, eenmalig per dag</div>
                    </div>
                    <div>Toedieningsweg: <span title="transdermaal (58 - G-Standaard thesaurus subtabel 0007)">transdermaal</span>
                    </div>
                    <div>Dosering: doseAndRate TODO</div>
                  </td>
                </tr>
              </tbody>
            </table>
          </div>
        </text>
        <extension url="http://nictiz.nl/fhir/StructureDefinition/ext-RenderedDosageInstruction">
          <valueString value="Vanaf T, tot en met T + 14 dagen om 12:00 uur, 1 maal per dag 1 stuk gedurende 16 uur, transdermaal"/>
        </extension>
        <extension url="http://nictiz.nl/fhir/StructureDefinition/ext-MedicationUse2.Prescriber">
          <valueReference>
            <reference value="urn:uuid:c33f04ce-6a95-11ec-0000-020000000000"/>
            <type value="PractitionerRole"/>
            <display value="Healthcare professional (role), Peter van Pulver, Huisartsen, niet nader gespecificeerd"/>
          </valueReference>
        </extension>
        <extension url="http://nictiz.nl/fhir/StructureDefinition/ext-PharmaceuticalTreatment.Identifier">
          <valueIdentifier>
            <system value="urn:oid:2.16.840.1.113883.2.4.3.11.999.77.1.1"/>
            <value value="MBH_200_toedieningsduur"/>
          </valueIdentifier>
        </extension>
        <extension url="http://nictiz.nl/fhir/StructureDefinition/ext-MedicationUse2.Author">
          <valueReference>
            <reference value="urn:uuid:c33f04ce-6a95-11ec-0000-020000000000"/>
            <type value="PractitionerRole"/>
            <display value="Healthcare professional (role), Peter van Pulver, Huisartsen, niet nader gespecificeerd"/>
          </valueReference>
        </extension>
        <identifier>
          <system value="urn:oid:2.16.840.1.113883.2.4.3.11.999.77.16076005.1"/>
          <value value="MBH_200_toedieningsduur_MGB"/>
        </identifier>
        <status value="active"/>
        <category>
          <coding>
            <system value="http://snomed.info/sct"/>
            <code value="422979000"/>
            <display value="bevinding betreffende gedrag met betrekking tot medicatieregime"/>
          </coding>
        </category>
        <medicationReference>
          <reference value="urn:uuid:c33f0870-6a95-11ec-0000-020000000000"/>
          <type value="Medication"/>
          <display value="NITROGLYCERINE PLEISTER 5MG/24UUR (DEPONIT T)"/>
        </medicationReference>
        <subject>
          <reference value="urn:uuid:c33f04b0-6a95-11ec-0000-020000000000"/>
          <type value="Patient"/>
          <display value="Patient, M. XXX_Rambaldo"/>
        </subject>
        <effectivePeriod>
          <start value="${DATE, T, D, +0}T00:00:00+02:00"/>
          <end value="${DATE, T, D, +14}T12:00:00+02:00"/>
        </effectivePeriod>
        <dateAsserted value="${DATE, T, D, +14}T12:00:00+02:00"/>
        <informationSource>
          <reference value="urn:uuid:c33f04b0-6a95-11ec-0000-020000000000"/>
          <type value="Patient"/>
          <display value="Patient, M. XXX_Rambaldo"/>
        </informationSource>
        <derivedFrom>
          <extension url="http://nictiz.nl/fhir/StructureDefinition/ext-ResourceCategory">
            <valueCodeableConcept>
              <coding>
                <system value="http://snomed.info/sct"/>
                <code value="33633005"/>
                <display value="voorschrijven"/>
              </coding>
            </valueCodeableConcept>
          </extension>
          <identifier>
            <system value="urn:oid:2.16.840.1.113883.2.4.3.11.999.77.16076005.1"/>
            <value value="MBH_200_toedieningsduur_MA"/>
          </identifier>
          <display value="relatie naar medicatieafspraak"/>
        </derivedFrom>
        <dosage>
          <timing>
            <repeat>
              <duration value="16"/>
              <durationUnit value="h"/>
              <frequency value="1"/>
              <period value="1"/>
              <periodUnit value="d"/>
            </repeat>
          </timing>
          <route>
            <coding>
              <system value="urn:oid:2.16.840.1.113883.2.4.4.9"/>
              <code value="58"/>
              <display value="transdermaal"/>
            </coding>
          </route>
          <doseAndRate>
            <doseQuantity>
              <extension url="http://hl7.org/fhir/StructureDefinition/iso21090-PQ-translation">
                <valueQuantity>
                  <value value="1"/>
                  <unit value="stuk"/>
                  <system value="urn:oid:2.16.840.1.113883.2.4.4.1.900.2"/>
                  <code value="245"/>
                </valueQuantity>
              </extension>
              <value value="1"/>
              <unit value="stuk"/>
              <system value="http://unitsofmeasure.org"/>
              <code value="1"/>
            </doseQuantity>
          </doseAndRate>
        </dosage>
      </MedicationStatement>
    </resource>
    <request>
      <method value="POST"/>
      <url value="MedicationStatement"/>
    </request>
  </entry>
  <entry>
    <fullUrl value="urn:uuid:c33f04b0-6a95-11ec-0000-020000000000"/>
    <resource>
      <Patient>
        <meta>
          <profile value="http://nictiz.nl/fhir/StructureDefinition/nl-core-Patient"/>
        </meta>
        <text>
          <status value="extensions"/>
          <div xmlns="http://www.w3.org/1999/xhtml">
            <div>Id 999900936 (BSN), M. XXX_Rambaldo, Vrouw, 7 november 1985</div>
          </div>
        </text>
        <identifier>
          <system value="http://fhir.nl/fhir/NamingSystem/bsn"/>
          <value value="999900936"/>
        </identifier>
        <name>
          <extension url="http://hl7.org/fhir/StructureDefinition/humanname-assembly-order">
            <valueCode value="NL1"/>
          </extension>
          <use value="official"/>
          <text value="M. XXX_Rambaldo"/>
          <family value="XXX_Rambaldo">
            <extension url="http://hl7.org/fhir/StructureDefinition/humanname-own-name">
              <valueString value="XXX_Rambaldo"/>
            </extension>
          </family>
          <given value="M.">
            <extension url="http://hl7.org/fhir/StructureDefinition/iso21090-EN-qualifier">
              <valueCode value="IN"/>
            </extension>
          </given>
        </name>
        <gender value="female">
          <extension url="http://nictiz.nl/fhir/StructureDefinition/ext-CodeSpecification">
            <valueCodeableConcept>
              <coding>
                <system value="http://terminology.hl7.org/CodeSystem/v3-AdministrativeGender"/>
                <code value="F"/>
                <display value="Vrouw"/>
              </coding>
            </valueCodeableConcept>
          </extension>
        </gender>
        <birthDate value="1985-11-07"/>
      </Patient>
    </resource>
    <request>
      <method value="POST"/>
      <url value="Patient"/>
    </request>
  </entry>
  <entry>
    <fullUrl value="urn:uuid:c33f04ce-6a95-11ec-0000-020000000000"/>
    <resource>
      <PractitionerRole>
        <meta>
          <profile value="http://nictiz.nl/fhir/StructureDefinition/nl-core-HealthProfessional-PractitionerRole"/>
        </meta>
        <text>
          <status value="extensions"/>
          <div xmlns="http://www.w3.org/1999/xhtml">
            <table>
              <caption>Zorgverlenerrol. </caption>
              <tbody>
                <tr>
                  <th>Zorgverlener</th>
                  <td>
                    <div>Healthcare professional (person), Peter van Pulver</div>
                    <div>Healthcare provider (organization), Huisartsenpraktijk Pulver &amp; Partners</div>
                  </td>
                </tr>
                <tr>
                  <th>Specialisme</th>
                  <td>
                    <span title="Huisartsen, niet nader gespecificeerd (0100 - AGB-medisch specialisme)">Huisartsen, niet nader gespecificeerd</span>
                  </td>
                </tr>
              </tbody>
            </table>
          </div>
        </text>
        <practitioner>
          <reference value="urn:uuid:c33f04ec-6a95-11ec-0000-020000000000"/>
          <type value="Practitioner"/>
          <display value="Healthcare professional (person), Peter van Pulver"/>
        </practitioner>
        <organization>
          <reference value="urn:uuid:c33f08ac-6a95-11ec-0000-020000000000"/>
          <type value="Organization"/>
          <display value="Healthcare provider (organization), Huisartsenpraktijk Pulver &amp; Partners"/>
        </organization>
        <specialty>
          <coding>
            <system value="urn:oid:2.16.840.1.113883.2.4.6.7"/>
            <version value="2020-10-23T00:00:00"/>
            <code value="0100"/>
            <display value="Huisartsen, niet nader gespecificeerd"/>
          </coding>
        </specialty>
      </PractitionerRole>
    </resource>
    <request>
      <method value="POST"/>
      <url value="PractitionerRole"/>
    </request>
  </entry>
  <entry>
    <fullUrl value="urn:uuid:c33f04ec-6a95-11ec-0000-020000000000"/>
    <resource>
      <Practitioner>
        <meta>
          <profile value="http://nictiz.nl/fhir/StructureDefinition/nl-core-HealthProfessional-Practitioner"/>
        </meta>
        <text>
          <status value="extensions"/>
          <div xmlns="http://www.w3.org/1999/xhtml">
            <div>Id 000001111 (UZI-NR-PERS), Peter van Pulver</div>
          </div>
        </text>
        <identifier>
          <system value="http://fhir.nl/fhir/NamingSystem/uzi-nr-pers"/>
          <value value="000001111"/>
        </identifier>
        <name>
          <use value="official"/>
          <text value="Peter van Pulver"/>
          <family value="van Pulver">
            <extension url="http://hl7.org/fhir/StructureDefinition/humanname-own-prefix">
              <valueString value="van"/>
            </extension>
            <extension url="http://hl7.org/fhir/StructureDefinition/humanname-own-name">
              <valueString value="Pulver"/>
            </extension>
          </family>
          <given value="Peter">
            <extension url="http://hl7.org/fhir/StructureDefinition/iso21090-EN-qualifier">
              <valueCode value="BR"/>
            </extension>
          </given>
        </name>
      </Practitioner>
    </resource>
    <request>
      <method value="POST"/>
      <url value="Practitioner"/>
    </request>
  </entry>
  <entry>
    <fullUrl value="urn:uuid:c33f08ac-6a95-11ec-0000-020000000000"/>
    <resource>
      <Organization>
        <meta>
          <profile value="http://nictiz.nl/fhir/StructureDefinition/nl-core-HealthcareProvider-Organization"/>
        </meta>
        <text>
          <status value="extensions"/>
          <div xmlns="http://www.w3.org/1999/xhtml">
            <table>
              <caption>Organisatie. Id: 00001111 (URA)</caption>
              <tbody>
                <tr>
                  <th>Naam</th>
                  <td>Huisartsenpraktijk Pulver &amp; Partners</td>
                </tr>
                <tr>
                  <th>Adres</th>
                  <td>Dorpsstraat 1, 1234AA Ons Dorp (Werk)</td>
                </tr>
              </tbody>
            </table>
          </div>
        </text>
        <identifier>
          <system value="http://fhir.nl/fhir/NamingSystem/ura"/>
          <value value="00001111"/>
        </identifier>
        <name value="Huisartsenpraktijk Pulver &amp; Partners"/>
        <address>
          <extension url="http://nictiz.nl/fhir/StructureDefinition/ext-AddressInformation.AddressType">
            <valueCodeableConcept>
              <coding>
                <system value="http://terminology.hl7.org/CodeSystem/v3-AddressUse"/>
                <code value="WP"/>
                <display value="Werkadres"/>
              </coding>
            </valueCodeableConcept>
          </extension>
          <use value="work"/>
          <line value="Dorpsstraat 1">
            <extension url="http://hl7.org/fhir/StructureDefinition/iso21090-ADXP-streetName">
              <valueString value="Dorpsstraat"/>
            </extension>
            <extension url="http://hl7.org/fhir/StructureDefinition/iso21090-ADXP-houseNumber">
              <valueString value="1"/>
            </extension>
          </line>
          <city value="Ons Dorp"/>
          <postalCode value="1234AA"/>
        </address>
      </Organization>
    </resource>
    <request>
      <method value="POST"/>
      <url value="Organization"/>
    </request>
  </entry>
  <entry>
    <fullUrl value="urn:uuid:c33f06ea-6a95-11ec-0000-020000000000"/>
    <resource>
      <Medication>
        <meta>
          <profile value="http://nictiz.nl/fhir/StructureDefinition/nl-core-PharmaceuticalProduct"/>
        </meta>
        <text>
          <status value="extensions"/>
          <div xmlns="http://www.w3.org/1999/xhtml">
            <table>
              <tbody>
                <tr>
                  <th>Code</th>
                  <td>
                    <span title="MIZOLASTINE TABLET MGA  10MG (48291 - G-Standaard PRK)">MIZOLASTINE TABLET MGA  10MG</span>
                  </td>
                </tr>
              </tbody>
            </table>
          </div>
        </text>
        <code>
          <coding>
            <system value="urn:oid:2.16.840.1.113883.2.4.4.10"/>
            <code value="48291"/>
            <display value="MIZOLASTINE TABLET MGA  10MG"/>
            <userSelected value="true"/>
          </coding>
          <coding>
            <system value="urn:oid:2.16.840.1.113883.2.4.4.1"/>
            <code value="102164"/>
            <display value="MIZOLASTINE TABLET MGA  10MG"/>
          </coding>
          <text value="MIZOLASTINE TABLET MGA  10MG"/>
        </code>
      </Medication>
    </resource>
    <request>
      <method value="POST"/>
      <url value="Medication"/>
    </request>
  </entry>
  <entry>
    <fullUrl value="urn:uuid:c33f0708-6a95-11ec-0000-020000000000"/>
    <resource>
      <Medication>
        <meta>
          <profile value="http://nictiz.nl/fhir/StructureDefinition/nl-core-PharmaceuticalProduct"/>
        </meta>
        <text>
          <status value="extensions"/>
          <div xmlns="http://www.w3.org/1999/xhtml">
            <table>
              <tbody>
                <tr>
                  <th>Code</th>
                  <td>
                    <span title="AMOXICILLINE DISPERTABLET 500MG (68519 - G-Standaard PRK)">AMOXICILLINE DISPERTABLET 500MG</span>
                  </td>
                </tr>
              </tbody>
            </table>
          </div>
        </text>
        <code>
          <coding>
            <system value="urn:oid:2.16.840.1.113883.2.4.4.10"/>
            <code value="68519"/>
            <display value="AMOXICILLINE DISPERTABLET 500MG"/>
            <userSelected value="true"/>
          </coding>
          <coding>
            <system value="urn:oid:2.16.840.1.113883.2.4.4.1"/>
            <code value="117080"/>
            <display value="AMOXICILLINE DISPERTABLET 500MG"/>
          </coding>
          <text value="AMOXICILLINE DISPERTABLET 500MG"/>
        </code>
      </Medication>
    </resource>
    <request>
      <method value="POST"/>
      <url value="Medication"/>
    </request>
  </entry>
  <entry>
    <fullUrl value="urn:uuid:c33f0726-6a95-11ec-0000-020000000000"/>
    <resource>
      <Medication>
        <meta>
          <profile value="http://nictiz.nl/fhir/StructureDefinition/nl-core-PharmaceuticalProduct"/>
        </meta>
        <text>
          <status value="extensions"/>
          <div xmlns="http://www.w3.org/1999/xhtml">
            <table>
              <tbody>
                <tr>
                  <th>Code</th>
                  <td>
                    <span title="PARACETAMOL 500MG TABLET (67903 - G-Standaard PRK)">PARACETAMOL 500MG TABLET</span>
                  </td>
                </tr>
              </tbody>
            </table>
          </div>
        </text>
        <code>
          <coding>
            <system value="urn:oid:2.16.840.1.113883.2.4.4.10"/>
            <code value="67903"/>
            <display value="PARACETAMOL 500MG TABLET"/>
            <userSelected value="true"/>
          </coding>
          <coding>
            <system value="urn:oid:2.16.840.1.113883.2.4.4.1"/>
            <code value="2194"/>
            <display value="PARACETAMOL 500MG TABLET"/>
          </coding>
          <text value="PARACETAMOL 500MG TABLET"/>
        </code>
      </Medication>
    </resource>
    <request>
      <method value="POST"/>
      <url value="Medication"/>
    </request>
  </entry>
  <entry>
    <fullUrl value="urn:uuid:c33f0744-6a95-11ec-0000-020000000000"/>
    <resource>
      <Medication>
        <meta>
          <profile value="http://nictiz.nl/fhir/StructureDefinition/nl-core-PharmaceuticalProduct"/>
        </meta>
        <text>
          <status value="extensions"/>
          <div xmlns="http://www.w3.org/1999/xhtml">
            <table>
              <tbody>
                <tr>
                  <th>Code</th>
                  <td>
                    <span title="Cetomacrogolcreme met vaseline 10% (92789 - G-Standaard PRK)">Cetomacrogolcreme met vaseline 10%</span>
                  </td>
                </tr>
              </tbody>
            </table>
          </div>
        </text>
        <code>
          <coding>
            <system value="urn:oid:2.16.840.1.113883.2.4.4.10"/>
            <code value="92789"/>
            <display value="Cetomacrogolcreme met vaseline 10%"/>
            <userSelected value="true"/>
          </coding>
          <coding>
            <system value="urn:oid:2.16.840.1.113883.2.4.4.1"/>
            <code value="133329"/>
            <display value="Cetomacrogolcreme met vaseline 10%"/>
          </coding>
          <text value="Cetomacrogolcreme met vaseline 10%"/>
        </code>
      </Medication>
    </resource>
    <request>
      <method value="POST"/>
      <url value="Medication"/>
    </request>
  </entry>
  <entry>
    <fullUrl value="urn:uuid:c33f0762-6a95-11ec-0000-020000000000"/>
    <resource>
      <Medication>
        <meta>
          <profile value="http://nictiz.nl/fhir/StructureDefinition/nl-core-PharmaceuticalProduct"/>
        </meta>
        <text>
          <status value="extensions"/>
          <div xmlns="http://www.w3.org/1999/xhtml">
            <table>
              <tbody>
                <tr>
                  <th>Code</th>
                  <td>
                    <span title="NAPROXEN 500MG TABLET (20850 - G-Standaard PRK)">NAPROXEN 500MG TABLET</span>
                  </td>
                </tr>
              </tbody>
            </table>
          </div>
        </text>
        <code>
          <coding>
            <system value="urn:oid:2.16.840.1.113883.2.4.4.10"/>
            <code value="20850"/>
            <display value="NAPROXEN 500MG TABLET"/>
            <userSelected value="true"/>
          </coding>
          <coding>
            <system value="urn:oid:2.16.840.1.113883.2.4.4.1"/>
            <code value="51233"/>
            <display value="NAPROXEN 500MG TABLET"/>
          </coding>
          <text value="NAPROXEN 500MG TABLET"/>
        </code>
      </Medication>
    </resource>
    <request>
      <method value="POST"/>
      <url value="Medication"/>
    </request>
  </entry>
  <entry>
    <fullUrl value="urn:uuid:c33f0780-6a95-11ec-0000-020000000000"/>
    <resource>
      <Medication>
        <meta>
          <profile value="http://nictiz.nl/fhir/StructureDefinition/nl-core-PharmaceuticalProduct"/>
        </meta>
        <text>
          <status value="extensions"/>
          <div xmlns="http://www.w3.org/1999/xhtml">
            <table>
              <tbody>
                <tr>
                  <th>Code</th>
                  <td>
                    <span title="WATERSTOFPEROXIDE CONC VOOR MONDSPOELING 30MG/ML (72664 - G-Standaard PRK)">WATERSTOFPEROXIDE CONC VOOR MONDSPOELING 30MG/ML</span>
                  </td>
                </tr>
              </tbody>
            </table>
          </div>
        </text>
        <code>
          <coding>
            <system value="urn:oid:2.16.840.1.113883.2.4.4.10"/>
            <code value="72664"/>
            <display value="WATERSTOFPEROXIDE CONC VOOR MONDSPOELING 30MG/ML"/>
            <userSelected value="true"/>
          </coding>
          <coding>
            <system value="urn:oid:2.16.840.1.113883.2.4.4.1"/>
            <code value="119903"/>
            <display value="WATERSTOFPEROXIDE CONC VOOR MONDSPOELING 30MG/ML"/>
          </coding>
          <text value="WATERSTOFPEROXIDE CONC VOOR MONDSPOELING 30MG/ML"/>
        </code>
      </Medication>
    </resource>
    <request>
      <method value="POST"/>
      <url value="Medication"/>
    </request>
  </entry>
  <entry>
    <fullUrl value="urn:uuid:c33f079e-6a95-11ec-0000-020000000000"/>
    <resource>
      <Medication>
        <meta>
          <profile value="http://nictiz.nl/fhir/StructureDefinition/nl-core-PharmaceuticalProduct"/>
        </meta>
        <text>
          <status value="extensions"/>
          <div xmlns="http://www.w3.org/1999/xhtml">
            <table>
              <tbody>
                <tr>
                  <th>Code</th>
                  <td>
                    <span title="METFORMINE 500MG TABLET (1090 - G-Standaard PRK)">METFORMINE 500MG TABLET</span>
                  </td>
                </tr>
              </tbody>
            </table>
          </div>
        </text>
        <code>
          <coding>
            <system value="urn:oid:2.16.840.1.113883.2.4.4.10"/>
            <code value="1090"/>
            <display value="METFORMINE 500MG TABLET"/>
            <userSelected value="true"/>
          </coding>
          <coding>
            <system value="urn:oid:2.16.840.1.113883.2.4.4.1"/>
            <code value="3816"/>
            <display value="METFORMINE 500MG TABLET"/>
          </coding>
          <text value="METFORMINE 500MG TABLET"/>
        </code>
      </Medication>
    </resource>
    <request>
      <method value="POST"/>
      <url value="Medication"/>
    </request>
  </entry>
  <entry>
    <fullUrl value="urn:uuid:c33f07bc-6a95-11ec-0000-020000000000"/>
    <resource>
      <Medication>
        <meta>
          <profile value="http://nictiz.nl/fhir/StructureDefinition/nl-core-PharmaceuticalProduct"/>
        </meta>
        <text>
          <status value="extensions"/>
          <div xmlns="http://www.w3.org/1999/xhtml">
            <table>
              <tbody>
                <tr>
                  <th>Code</th>
                  <td>
                    <span title="IMIQUIMOD 50MG/G CREME (55050 - G-Standaard PRK)">IMIQUIMOD 50MG/G CREME</span>
                  </td>
                </tr>
              </tbody>
            </table>
          </div>
        </text>
        <code>
          <coding>
            <system value="urn:oid:2.16.840.1.113883.2.4.4.10"/>
            <code value="55050"/>
            <display value="IMIQUIMOD 50MG/G CREME"/>
            <userSelected value="true"/>
          </coding>
          <coding>
            <system value="urn:oid:2.16.840.1.113883.2.4.4.1"/>
            <code value="109398"/>
            <display value="IMIQUIMOD 50MG/G CREME"/>
          </coding>
          <text value="IMIQUIMOD 50MG/G CREME"/>
        </code>
      </Medication>
    </resource>
    <request>
      <method value="POST"/>
      <url value="Medication"/>
    </request>
  </entry>
  <entry>
    <fullUrl value="urn:uuid:c33f07da-6a95-11ec-0000-020000000000"/>
    <resource>
      <Medication>
        <meta>
          <profile value="http://nictiz.nl/fhir/StructureDefinition/nl-core-PharmaceuticalProduct"/>
        </meta>
        <text>
          <status value="extensions"/>
          <div xmlns="http://www.w3.org/1999/xhtml">
            <table>
              <tbody>
                <tr>
                  <th>Code</th>
                  <td>
                    <span title="EZETIMIB/SIMVASTATINE 10/20 (77038 - G-Standaard PRK)">EZETIMIB/SIMVASTATINE 10/20</span>
                  </td>
                </tr>
              </tbody>
            </table>
          </div>
        </text>
        <code>
          <coding>
            <system value="urn:oid:2.16.840.1.113883.2.4.4.10"/>
            <code value="77038"/>
            <display value="EZETIMIB/SIMVASTATINE 10/20"/>
            <userSelected value="true"/>
          </coding>
          <coding>
            <system value="urn:oid:2.16.840.1.113883.2.4.4.1"/>
            <code value="123129"/>
            <display value="EZETIMIB/SIMVASTATINE 10/20"/>
          </coding>
          <text value="EZETIMIB/SIMVASTATINE 10/20"/>
        </code>
      </Medication>
    </resource>
    <request>
      <method value="POST"/>
      <url value="Medication"/>
    </request>
  </entry>
  <entry>
    <fullUrl value="urn:uuid:c33f07f8-6a95-11ec-0000-020000000000"/>
    <resource>
      <Medication>
        <meta>
          <profile value="http://nictiz.nl/fhir/StructureDefinition/nl-core-PharmaceuticalProduct"/>
        </meta>
        <text>
          <status value="extensions"/>
          <div xmlns="http://www.w3.org/1999/xhtml">
            <table>
              <tbody>
                <tr>
                  <th>Code</th>
                  <td>
                    <span title="ETHINYLESTRADIOL/DESOGESTREL TABLET 30/150UG (16292 - G-Standaard PRK)">ETHINYLESTRADIOL/DESOGESTREL TABLET 30/150UG</span>
                  </td>
                </tr>
              </tbody>
            </table>
          </div>
        </text>
        <code>
          <coding>
            <system value="urn:oid:2.16.840.1.113883.2.4.4.10"/>
            <code value="16292"/>
            <display value="ETHINYLESTRADIOL/DESOGESTREL TABLET 30/150UG"/>
            <userSelected value="true"/>
          </coding>
          <coding>
            <system value="urn:oid:2.16.840.1.113883.2.4.4.1"/>
            <code value="39578"/>
            <display value="ETHINYLESTRADIOL/DESOGESTREL TABLET 30/150UG"/>
          </coding>
          <text value="ETHINYLESTRADIOL/DESOGESTREL TABLET 30/150UG"/>
        </code>
      </Medication>
    </resource>
    <request>
      <method value="POST"/>
      <url value="Medication"/>
    </request>
  </entry>
  <entry>
    <fullUrl value="urn:uuid:c33f0816-6a95-11ec-0000-020000000000"/>
    <resource>
      <Medication>
        <meta>
          <profile value="http://nictiz.nl/fhir/StructureDefinition/nl-core-PharmaceuticalProduct"/>
        </meta>
        <text>
          <status value="extensions"/>
          <div xmlns="http://www.w3.org/1999/xhtml">
            <table>
              <tbody>
                <tr>
                  <th>Code</th>
                  <td>
                    <span title="Fusidinezuur creme 20mg/g (16705 - G-Standaard PRK)">Fusidinezuur creme 20mg/g</span>
                  </td>
                </tr>
              </tbody>
            </table>
          </div>
        </text>
        <code>
          <coding>
            <system value="urn:oid:2.16.840.1.113883.2.4.4.10"/>
            <code value="16705"/>
            <display value="Fusidinezuur creme 20mg/g"/>
            <userSelected value="true"/>
          </coding>
          <coding>
            <system value="urn:oid:2.16.840.1.113883.2.4.4.1"/>
            <code value="73466"/>
            <display value="Fusidinezuur creme 20mg/g"/>
          </coding>
          <text value="Fusidinezuur creme 20mg/g"/>
        </code>
      </Medication>
    </resource>
    <request>
      <method value="POST"/>
      <url value="Medication"/>
    </request>
  </entry>
  <entry>
    <fullUrl value="urn:uuid:c33f0834-6a95-11ec-0000-020000000000"/>
    <resource>
      <Medication>
        <meta>
          <profile value="http://nictiz.nl/fhir/StructureDefinition/nl-core-PharmaceuticalProduct"/>
        </meta>
        <text>
          <status value="extensions"/>
          <div xmlns="http://www.w3.org/1999/xhtml">
            <table>
              <tbody>
                <tr>
                  <th>Code</th>
                  <td>
                    <span title="CODEINE TABLET 10MG (FOSFAAT) (42773 - G-Standaard PRK)">CODEINE TABLET 10MG (FOSFAAT)</span>
                  </td>
                </tr>
              </tbody>
            </table>
          </div>
        </text>
        <code>
          <coding>
            <system value="urn:oid:2.16.840.1.113883.2.4.4.10"/>
            <code value="42773"/>
            <display value="CODEINE TABLET 10MG (FOSFAAT)"/>
            <userSelected value="true"/>
          </coding>
          <coding>
            <system value="urn:oid:2.16.840.1.113883.2.4.4.1"/>
            <code value="23086"/>
            <display value="CODEINE TABLET 10MG (FOSFAAT)"/>
          </coding>
          <text value="CODEINE TABLET 10MG (FOSFAAT)"/>
        </code>
      </Medication>
    </resource>
    <request>
      <method value="POST"/>
      <url value="Medication"/>
    </request>
  </entry>
  <entry>
    <fullUrl value="urn:uuid:c33f0852-6a95-11ec-0000-020000000000"/>
    <resource>
      <Medication>
        <meta>
          <profile value="http://nictiz.nl/fhir/StructureDefinition/nl-core-PharmaceuticalProduct"/>
        </meta>
        <text>
          <status value="extensions"/>
          <div xmlns="http://www.w3.org/1999/xhtml">
            <table>
              <tbody>
                <tr>
                  <th>Code</th>
                  <td>
                    <span title="MORFINE INFVLST 5MG/ML CAS 100ML (94692 - G-Standaard PRK)">MORFINE INFVLST 5MG/ML CAS 100ML</span>
                  </td>
                </tr>
              </tbody>
            </table>
          </div>
        </text>
        <code>
          <coding>
            <system value="urn:oid:2.16.840.1.113883.2.4.4.10"/>
            <code value="94692"/>
            <display value="MORFINE INFVLST 5MG/ML CAS 100ML"/>
            <userSelected value="true"/>
          </coding>
          <coding>
            <system value="urn:oid:2.16.840.1.113883.2.4.4.1"/>
            <code value="134538"/>
            <display value="MORFINE INFVLST 5MG/ML CAS 100ML"/>
          </coding>
          <text value="MORFINE INFVLST 5MG/ML CAS 100ML"/>
        </code>
      </Medication>
    </resource>
    <request>
      <method value="POST"/>
      <url value="Medication"/>
    </request>
  </entry>
  <entry>
    <fullUrl value="urn:uuid:c33f0870-6a95-11ec-0000-020000000000"/>
    <resource>
      <Medication>
        <meta>
          <profile value="http://nictiz.nl/fhir/StructureDefinition/nl-core-PharmaceuticalProduct"/>
        </meta>
        <text>
          <status value="extensions"/>
          <div xmlns="http://www.w3.org/1999/xhtml">
            <table>
              <tbody>
                <tr>
                  <th>Code</th>
                  <td>
                    <span title="NITROGLYCERINE PLEISTER 5MG/24UUR (DEPONIT T) (44520 - G-Standaard PRK)">NITROGLYCERINE PLEISTER 5MG/24UUR (DEPONIT T)</span>
                  </td>
                </tr>
              </tbody>
            </table>
          </div>
        </text>
        <code>
          <coding>
            <system value="urn:oid:2.16.840.1.113883.2.4.4.10"/>
            <code value="44520"/>
            <display value="NITROGLYCERINE PLEISTER 5MG/24UUR (DEPONIT T)"/>
            <userSelected value="true"/>
          </coding>
          <coding>
            <system value="urn:oid:2.16.840.1.113883.2.4.4.1"/>
            <code value="98477"/>
            <display value="NITROGLYCERINE PLEISTER 5MG/24UUR (DEPONIT T)"/>
          </coding>
          <text value="NITROGLYCERINE PLEISTER 5MG/24UUR (DEPONIT T)"/>
        </code>
      </Medication>
    </resource>
    <request>
      <method value="POST"/>
      <url value="Medication"/>
    </request>
  </entry>
  <entry>
    <fullUrl value="urn:uuid:c33f088e-6a95-11ec-0000-020000000000"/>
    <resource>
      <Medication>
        <meta>
          <profile value="http://nictiz.nl/fhir/StructureDefinition/nl-core-PharmaceuticalProduct"/>
        </meta>
        <text>
          <status value="extensions"/>
          <div xmlns="http://www.w3.org/1999/xhtml">
            <table>
              <tbody>
                <tr>
                  <th>Code</th>
                  <td>
                    <span title="ACETYLSALICYLZUUR 100MG TAB (3956 - G-Standaard PRK)">ACETYLSALICYLZUUR 100MG TAB</span>
                  </td>
                </tr>
              </tbody>
            </table>
          </div>
        </text>
        <code>
          <coding>
            <system value="urn:oid:2.16.840.1.113883.2.4.4.10"/>
            <code value="3956"/>
            <display value="ACETYLSALICYLZUUR 100MG TAB"/>
            <userSelected value="true"/>
          </coding>
          <coding>
            <system value="urn:oid:2.16.840.1.113883.2.4.4.1"/>
            <code value="12548"/>
            <display value="ACETYLSALICYLZUUR TABLET 100MG"/>
          </coding>
          <text value="ACETYLSALICYLZUUR 100MG TAB"/>
        </code>
      </Medication>
    </resource>
    <request>
      <method value="POST"/>
      <url value="Medication"/>
    </request>
  </entry>
</Bundle>
