{
  "resourceType": "Bundle",
  "id": "mg-mp-mg-tst-WDS-Scenarioset11-v20",
  "type": "transaction",
  "entry": [
    {
      "fullUrl": "urn:uuid:c33f09ce-6a95-11ec-0000-020000000000",
      "resource": {
        "resourceType": "MedicationRequest",
        "id": "mp-VarDosReg-mp9-MBH200wdsmtd1WDSopstartschema",
        "meta": {
          "profile": [
            "http://nictiz.nl/fhir/StructureDefinition/mp-VariableDosingRegimen"
          ]
        },
        "extension": [
          {
            "url": "http://nictiz.nl/fhir/StructureDefinition/ext-PharmaceuticalTreatment.Identifier",
            "valueIdentifier": {
              "system": "urn:oid:2.16.840.1.113883.2.4.3.11.999.77.1.1",
              "value": "MBH_200_wdsmtd1"
            }
          },
          {
            "url": "http://nictiz.nl/fhir/StructureDefinition/ext-RenderedDosageInstruction",
            "valueString": "Vanaf T - 20 dagen, tot en met T - 15 dagen, eerst gedurende 3 dagen 1 maal per dag om 20:00 2 stuks, dan gedurende 3 dagen 1 maal per dag om 20:00 1 stuk, Oraal"
          },
          {
            "url": "http://nictiz.nl/fhir/StructureDefinition/ext-TimeInterval.Period",
            "valuePeriod": {
              "start": "${DATE, T, D, -20}T00:00:00+02:00",
              "end": "${DATE, T, D, -15}T23:59:59+02:00"
            }
          }
        ],
        "identifier": [
          {
            "system": "urn:oid:2.16.840.1.113883.2.4.3.11.999.77.632.1",
            "value": "MBH_200_wdsmtd1_WDS_opstartschema"
          }
        ],
        "status": "unknown",
        "intent": "order",
        "category": [
          {
            "coding": [
              {
                "system": "http://snomed.info/sct",
                "code": "395067002",
                "display": "optimaliseren van dosering van medicatie"
              }
            ]
          }
        ],
        "medicationReference": {
          "reference": "urn:uuid:c33f0a46-6a95-11ec-0000-020000000000",
          "type": "Medication",
          "display": "ACENOCOUMAROL TABLET 1MG"
        },
        "subject": {
          "reference": "urn:uuid:c33f09b0-6a95-11ec-0000-020000000000",
          "type": "Patient",
          "display": "Patient, M. XXX_Pherai"
        },
        "authoredOn": "${DATE, T, D, -20}T08:00:00+02:00",
        "requester": {
          "reference": "urn:uuid:c33f0a64-6a95-11ec-0000-020000000000",
          "type": "PractitionerRole",
          "display": "Healthcare professional (role), Peter van Pulver, Huisartsen, niet nader gespecificeerd"
        },
        "basedOn": [
          {
            "type": "MedicationRequest",
            "identifier": {
              "system": "urn:oid:2.16.840.1.113883.2.4.3.11.999.77.16076005.1",
              "value": "MBH_200_wdsmtd1_MA"
            },
            "display": "relatie naar medicatieafspraak met identificatie: MBH_200_wdsmtd1_MA || 2.16.840.1.113883.2.4.3.11.999.77.16076005.1"
          }
        ],
        "dosageInstruction": [
          {
            "sequence": 1,
            "timing": {
              "repeat": {
                "extension": [
                  {
                    "url": "http://hl7.org/fhir/StructureDefinition/timing-exact",
                    "valueBoolean": false
                  }
                ],
                "boundsDuration": {
                  "value": 3,
                  "unit": "dag",
                  "system": "http://unitsofmeasure.org",
                  "code": "d"
                },
                "frequency": 1,
                "period": 1,
                "periodUnit": "d",
                "timeOfDay": [
                  "20:00:00"
                ]
              }
            },
            "route": {
              "coding": [
                {
                  "system": "urn:oid:2.16.840.1.113883.2.4.4.9",
                  "code": "9",
                  "display": "Oraal"
                }
              ]
            },
            "doseAndRate": [
              {
                "doseQuantity": {
                  "extension": [
                    {
                      "url": "http://hl7.org/fhir/StructureDefinition/iso21090-PQ-translation",
                      "valueQuantity": {
                        "value": 2,
                        "unit": "stuk",
                        "system": "urn:oid:2.16.840.1.113883.2.4.4.1.900.2",
                        "code": "245"
                      }
                    }
                  ],
                  "value": 2,
                  "unit": "stuk",
                  "system": "http://unitsofmeasure.org",
                  "code": "1"
                }
              }
            ]
          },
          {
            "sequence": 2,
            "timing": {
              "repeat": {
                "extension": [
                  {
                    "url": "http://hl7.org/fhir/StructureDefinition/timing-exact",
                    "valueBoolean": false
                  }
                ],
                "boundsDuration": {
                  "value": 3,
                  "unit": "dag",
                  "system": "http://unitsofmeasure.org",
                  "code": "d"
                },
                "frequency": 1,
                "period": 1,
                "periodUnit": "d",
                "timeOfDay": [
                  "20:00:00"
                ]
              }
            },
            "route": {
              "coding": [
                {
                  "system": "urn:oid:2.16.840.1.113883.2.4.4.9",
                  "code": "9",
                  "display": "Oraal"
                }
              ]
            },
            "doseAndRate": [
              {
                "doseQuantity": {
                  "extension": [
                    {
                      "url": "http://hl7.org/fhir/StructureDefinition/iso21090-PQ-translation",
                      "valueQuantity": {
                        "value": 1,
                        "unit": "stuk",
                        "system": "urn:oid:2.16.840.1.113883.2.4.4.1.900.2",
                        "code": "245"
                      }
                    }
                  ],
                  "value": 1,
                  "unit": "stuk",
                  "system": "http://unitsofmeasure.org",
                  "code": "1"
                }
              }
            ]
          }
        ]
      },
      "request": {
        "method": "POST",
        "url": "MedicationRequest"
      }
    },
    {
      "fullUrl": "urn:uuid:c33f09ec-6a95-11ec-0000-020000000000",
      "resource": {
        "resourceType": "MedicationRequest",
        "id": "mp-VarDosReg-mp9-MBH200wdsmtd1WDStrombosedienst",
        "meta": {
          "profile": [
            "http://nictiz.nl/fhir/StructureDefinition/mp-VariableDosingRegimen"
          ]
        },
        "extension": [
          {
            "url": "http://nictiz.nl/fhir/StructureDefinition/ext-PharmaceuticalTreatment.Identifier",
            "valueIdentifier": {
              "system": "urn:oid:2.16.840.1.113883.2.4.3.11.999.77.1.1",
              "value": "MBH_200_wdsmtd1"
            }
          },
          {
            "url": "http://nictiz.nl/fhir/StructureDefinition/ext-RenderedDosageInstruction",
            "valueString": "Vanaf T - 14 dagen, tot en met T - 5 dagen, cyclus van 5 dagen: steeds eerst gedurende 2 dagen 1 maal per dag 2 stuks 's avonds, dan gedurende 2 dagen 1 maal per dag 2 stuks 's avonds, dan gedurende 1 dag 1 maal per dag 0 stuks 's avonds, Oraal"
          },
          {
            "url": "http://nictiz.nl/fhir/StructureDefinition/ext-TimeInterval.Period",
            "valuePeriod": {
              "start": "${DATE, T, D, -14}T00:00:00+02:00",
              "end": "${DATE, T, D, -5}T23:59:59+02:00"
            }
          }
        ],
        "modifierExtension": [
          {
            "url": "http://nictiz.nl/fhir/StructureDefinition/ext-InstructionsForUse.RepeatPeriodCyclicalSchedule",
            "valueDuration": {
              "value": 5,
              "unit": "dag",
              "system": "http://unitsofmeasure.org",
              "code": "d"
            }
          }
        ],
        "identifier": [
          {
            "system": "urn:oid:2.16.840.1.113883.2.4.3.11.999.77.632.1",
            "value": "MBH_200_wdsmtd1_WDS_trombosedienst"
          }
        ],
        "status": "unknown",
        "intent": "order",
        "category": [
          {
            "coding": [
              {
                "system": "http://snomed.info/sct",
                "code": "395067002",
                "display": "optimaliseren van dosering van medicatie"
              }
            ]
          }
        ],
        "medicationReference": {
          "reference": "urn:uuid:c33f0a46-6a95-11ec-0000-020000000000",
          "type": "Medication",
          "display": "ACENOCOUMAROL TABLET 1MG"
        },
        "subject": {
          "reference": "urn:uuid:c33f09b0-6a95-11ec-0000-020000000000",
          "type": "Patient",
          "display": "Patient, M. XXX_Pherai"
        },
        "authoredOn": "${DATE, T, D, -15}T14:30:00+02:00",
        "requester": {
          "reference": "urn:uuid:c33f0aa0-6a95-11ec-0000-020000000000",
          "type": "PractitionerRole",
          "display": "Healthcare professional (role), Tanja de Bakker, Trombosediensten"
        },
        "basedOn": [
          {
            "type": "MedicationRequest",
            "identifier": {
              "system": "urn:oid:2.16.840.1.113883.2.4.3.11.999.77.16076005.1",
              "value": "MBH_200_wdsmtd1_MA"
            },
            "display": "relatie naar medicatieafspraak met identificatie: MBH_200_wdsmtd1_MA || 2.16.840.1.113883.2.4.3.11.999.77.16076005.1"
          }
        ],
        "dosageInstruction": [
          {
            "sequence": 1,
            "timing": {
              "repeat": {
                "extension": [
                  {
                    "url": "http://hl7.org/fhir/StructureDefinition/timing-exact",
                    "valueBoolean": false
                  }
                ],
                "boundsDuration": {
                  "value": 2,
                  "unit": "dag",
                  "system": "http://unitsofmeasure.org",
                  "code": "d"
                },
                "frequency": 1,
                "period": 1,
                "periodUnit": "d",
                "when": [
                  "EVE"
                ]
              }
            },
            "route": {
              "coding": [
                {
                  "system": "urn:oid:2.16.840.1.113883.2.4.4.9",
                  "code": "9",
                  "display": "Oraal"
                }
              ]
            },
            "doseAndRate": [
              {
                "doseQuantity": {
                  "extension": [
                    {
                      "url": "http://hl7.org/fhir/StructureDefinition/iso21090-PQ-translation",
                      "valueQuantity": {
                        "value": 2,
                        "unit": "stuk",
                        "system": "urn:oid:2.16.840.1.113883.2.4.4.1.900.2",
                        "code": "245"
                      }
                    }
                  ],
                  "value": 2,
                  "unit": "stuk",
                  "system": "http://unitsofmeasure.org",
                  "code": "1"
                }
              }
            ]
          },
          {
            "sequence": 2,
            "timing": {
              "repeat": {
                "extension": [
                  {
                    "url": "http://hl7.org/fhir/StructureDefinition/timing-exact",
                    "valueBoolean": false
                  }
                ],
                "boundsDuration": {
                  "value": 2,
                  "unit": "dag",
                  "system": "http://unitsofmeasure.org",
                  "code": "d"
                },
                "frequency": 1,
                "period": 1,
                "periodUnit": "d",
                "when": [
                  "EVE"
                ]
              }
            },
            "route": {
              "coding": [
                {
                  "system": "urn:oid:2.16.840.1.113883.2.4.4.9",
                  "code": "9",
                  "display": "Oraal"
                }
              ]
            },
            "doseAndRate": [
              {
                "doseQuantity": {
                  "extension": [
                    {
                      "url": "http://hl7.org/fhir/StructureDefinition/iso21090-PQ-translation",
                      "valueQuantity": {
                        "value": 2,
                        "unit": "stuk",
                        "system": "urn:oid:2.16.840.1.113883.2.4.4.1.900.2",
                        "code": "245"
                      }
                    }
                  ],
                  "value": 2,
                  "unit": "stuk",
                  "system": "http://unitsofmeasure.org",
                  "code": "1"
                }
              }
            ]
          },
          {
            "sequence": 3,
            "timing": {
              "repeat": {
                "extension": [
                  {
                    "url": "http://hl7.org/fhir/StructureDefinition/timing-exact",
                    "valueBoolean": false
                  }
                ],
                "boundsDuration": {
                  "value": 1,
                  "unit": "dag",
                  "system": "http://unitsofmeasure.org",
                  "code": "d"
                },
                "frequency": 1,
                "period": 1,
                "periodUnit": "d",
                "when": [
                  "EVE"
                ]
              }
            },
            "route": {
              "coding": [
                {
                  "system": "urn:oid:2.16.840.1.113883.2.4.4.9",
                  "code": "9",
                  "display": "Oraal"
                }
              ]
            },
            "doseAndRate": [
              {
                "doseQuantity": {
                  "extension": [
                    {
                      "url": "http://hl7.org/fhir/StructureDefinition/iso21090-PQ-translation",
                      "valueQuantity": {
                        "value": 0,
                        "unit": "stuk",
                        "system": "urn:oid:2.16.840.1.113883.2.4.4.1.900.2",
                        "code": "245"
                      }
                    }
                  ],
                  "value": 0,
                  "unit": "stuk",
                  "system": "http://unitsofmeasure.org",
                  "code": "1"
                }
              }
            ]
          }
        ],
        "priorPrescription": {
          "type": "MedicationRequest",
          "identifier": {
            "system": "urn:oid:2.16.840.1.113883.2.4.3.11.999.77.632.1",
            "value": "MBH_200_wdsmtd1_WDS_opstartschema"
          },
          "display": "relatie naar wisselend doseerschema met identificatie: MBH_200_wdsmtd1_WDS_opstartschema || 2.16.840.1.113883.2.4.3.11.999.77.632.1"
        }
      },
      "request": {
        "method": "POST",
        "url": "MedicationRequest"
      }
    },
    {
      "fullUrl": "urn:uuid:c33f0a0a-6a95-11ec-0000-020000000000",
      "resource": {
        "resourceType": "MedicationRequest",
        "id": "mp-VarDosReg-mp9-MBH200wdsmtd1WDStechnischestop",
        "meta": {
          "profile": [
            "http://nictiz.nl/fhir/StructureDefinition/mp-VariableDosingRegimen"
          ]
        },
        "extension": [
          {
            "url": "http://nictiz.nl/fhir/StructureDefinition/ext-PharmaceuticalTreatment.Identifier",
            "valueIdentifier": {
              "system": "urn:oid:2.16.840.1.113883.2.4.3.11.999.77.1.1",
              "value": "MBH_200_wdsmtd1"
            }
          },
          {
            "url": "http://nictiz.nl/fhir/StructureDefinition/ext-RenderedDosageInstruction",
            "valueString": "Vanaf T - 14 dagen, tot en met T - 7 dagen, cyclus van 5 dagen: steeds eerst gedurende 2 dagen 1 maal per dag 2 stuks 's avonds, dan gedurende 2 dagen 1 maal per dag 2 stuks 's avonds, dan gedurende 1 dag 1 maal per dag 0 stuks 's avonds, Oraal, definitief gestopt"
          },
          {
            "url": "http://nictiz.nl/fhir/StructureDefinition/ext-TimeInterval.Period",
            "valuePeriod": {
              "start": "${DATE, T, D, -14}T00:00:00+02:00",
              "end": "${DATE, T, D, -7}T23:59:59+02:00"
            }
          }
        ],
        "modifierExtension": [
          {
            "url": "http://nictiz.nl/fhir/StructureDefinition/ext-InstructionsForUse.RepeatPeriodCyclicalSchedule",
            "valueDuration": {
              "value": 5,
              "unit": "dag",
              "system": "http://unitsofmeasure.org",
              "code": "d"
            }
          },
          {
            "url": "http://nictiz.nl/fhir/StructureDefinition/ext-StopType",
            "valueCodeableConcept": {
              "coding": [
                {
                  "system": "http://snomed.info/sct",
                  "code": "113371000146109",
                  "display": "definitief gestopt met medicatie"
                }
              ]
            }
          }
        ],
        "identifier": [
          {
            "system": "urn:oid:2.16.840.1.113883.2.4.3.11.999.77.632.1",
            "value": "MBH_200_wdsmtd1_WDS_technischestop"
          }
        ],
        "status": "unknown",
        "intent": "order",
        "category": [
          {
            "coding": [
              {
                "system": "http://snomed.info/sct",
                "code": "395067002",
                "display": "optimaliseren van dosering van medicatie"
              }
            ]
          }
        ],
        "medicationReference": {
          "reference": "urn:uuid:c33f0a46-6a95-11ec-0000-020000000000",
          "type": "Medication",
          "display": "ACENOCOUMAROL TABLET 1MG"
        },
        "subject": {
          "reference": "urn:uuid:c33f09b0-6a95-11ec-0000-020000000000",
          "type": "Patient",
          "display": "Patient, M. XXX_Pherai"
        },
        "authoredOn": "${DATE, T, D, -7}T10:30:00+02:00",
        "requester": {
          "reference": "urn:uuid:c33f0aa0-6a95-11ec-0000-020000000000",
          "type": "PractitionerRole",
          "display": "Healthcare professional (role), Tanja de Bakker, Trombosediensten"
        },
        "reasonCode": [
          {
            "coding": [
              {
                "system": "http://snomed.info/sct",
                "code": "58848006",
                "display": "gebrek aan geneesmiddeleffect"
              }
            ]
          }
        ],
        "basedOn": [
          {
            "type": "MedicationRequest",
            "identifier": {
              "system": "urn:oid:2.16.840.1.113883.2.4.3.11.999.77.16076005.1",
              "value": "MBH_200_wdsmtd1_MA"
            },
            "display": "relatie naar medicatieafspraak met identificatie: MBH_200_wdsmtd1_MA || 2.16.840.1.113883.2.4.3.11.999.77.16076005.1"
          }
        ],
        "note": [
          {
            "text": "Dosering aangepast i.v.m. te lage INR waarde."
          }
        ],
        "dosageInstruction": [
          {
            "sequence": 1,
            "timing": {
              "repeat": {
                "extension": [
                  {
                    "url": "http://hl7.org/fhir/StructureDefinition/timing-exact",
                    "valueBoolean": false
                  }
                ],
                "boundsDuration": {
                  "value": 2,
                  "unit": "dag",
                  "system": "http://unitsofmeasure.org",
                  "code": "d"
                },
                "frequency": 1,
                "period": 1,
                "periodUnit": "d",
                "when": [
                  "EVE"
                ]
              }
            },
            "route": {
              "coding": [
                {
                  "system": "urn:oid:2.16.840.1.113883.2.4.4.9",
                  "code": "9",
                  "display": "Oraal"
                }
              ]
            },
            "doseAndRate": [
              {
                "doseQuantity": {
                  "extension": [
                    {
                      "url": "http://hl7.org/fhir/StructureDefinition/iso21090-PQ-translation",
                      "valueQuantity": {
                        "value": 2,
                        "unit": "stuk",
                        "system": "urn:oid:2.16.840.1.113883.2.4.4.1.900.2",
                        "code": "245"
                      }
                    }
                  ],
                  "value": 2,
                  "unit": "stuk",
                  "system": "http://unitsofmeasure.org",
                  "code": "1"
                }
              }
            ]
          },
          {
            "sequence": 2,
            "timing": {
              "repeat": {
                "extension": [
                  {
                    "url": "http://hl7.org/fhir/StructureDefinition/timing-exact",
                    "valueBoolean": false
                  }
                ],
                "boundsDuration": {
                  "value": 2,
                  "unit": "dag",
                  "system": "http://unitsofmeasure.org",
                  "code": "d"
                },
                "frequency": 1,
                "period": 1,
                "periodUnit": "d",
                "when": [
                  "EVE"
                ]
              }
            },
            "route": {
              "coding": [
                {
                  "system": "urn:oid:2.16.840.1.113883.2.4.4.9",
                  "code": "9",
                  "display": "Oraal"
                }
              ]
            },
            "doseAndRate": [
              {
                "doseQuantity": {
                  "extension": [
                    {
                      "url": "http://hl7.org/fhir/StructureDefinition/iso21090-PQ-translation",
                      "valueQuantity": {
                        "value": 2,
                        "unit": "stuk",
                        "system": "urn:oid:2.16.840.1.113883.2.4.4.1.900.2",
                        "code": "245"
                      }
                    }
                  ],
                  "value": 2,
                  "unit": "stuk",
                  "system": "http://unitsofmeasure.org",
                  "code": "1"
                }
              }
            ]
          },
          {
            "sequence": 3,
            "timing": {
              "repeat": {
                "extension": [
                  {
                    "url": "http://hl7.org/fhir/StructureDefinition/timing-exact",
                    "valueBoolean": false
                  }
                ],
                "boundsDuration": {
                  "value": 1,
                  "unit": "dag",
                  "system": "http://unitsofmeasure.org",
                  "code": "d"
                },
                "frequency": 1,
                "period": 1,
                "periodUnit": "d",
                "when": [
                  "EVE"
                ]
              }
            },
            "route": {
              "coding": [
                {
                  "system": "urn:oid:2.16.840.1.113883.2.4.4.9",
                  "code": "9",
                  "display": "Oraal"
                }
              ]
            },
            "doseAndRate": [
              {
                "doseQuantity": {
                  "extension": [
                    {
                      "url": "http://hl7.org/fhir/StructureDefinition/iso21090-PQ-translation",
                      "valueQuantity": {
                        "value": 0,
                        "unit": "stuks",
                        "system": "urn:oid:2.16.840.1.113883.2.4.4.1.900.2",
                        "code": "245"
                      }
                    }
                  ],
                  "value": 0,
                  "unit": "stuks",
                  "system": "http://unitsofmeasure.org",
                  "code": "1"
                }
              }
            ]
          }
        ],
        "priorPrescription": {
          "type": "MedicationRequest",
          "identifier": {
            "system": "urn:oid:2.16.840.1.113883.2.4.3.11.999.77.632.1",
            "value": "MBH_200_wdsmtd1_WDS_trombosedienst"
          },
          "display": "relatie naar wisselend doseerschema met identificatie: MBH_200_wdsmtd1_WDS_trombosedienst || 2.16.840.1.113883.2.4.3.11.999.77.632.1"
        }
      },
      "request": {
        "method": "POST",
        "url": "MedicationRequest"
      }
    },
    {
      "fullUrl": "urn:uuid:c33f0a28-6a95-11ec-0000-020000000000",
      "resource": {
        "resourceType": "MedicationRequest",
        "id": "mp-VarDosReg-mp9-MBH200wdsmtd1WDSverhoging",
        "meta": {
          "profile": [
            "http://nictiz.nl/fhir/StructureDefinition/mp-VariableDosingRegimen"
          ]
        },
        "extension": [
          {
            "url": "http://nictiz.nl/fhir/StructureDefinition/ext-PharmaceuticalTreatment.Identifier",
            "valueIdentifier": {
              "system": "urn:oid:2.16.840.1.113883.2.4.3.11.999.77.1.1",
              "value": "MBH_200_wdsmtd1"
            }
          },
          {
            "url": "http://nictiz.nl/fhir/StructureDefinition/ext-RenderedDosageInstruction",
            "valueString": "Vanaf T - 6 dagen, tot en met T + 6 dagen, cyclus van 5 dagen: steeds eerst gedurende 3 dagen 1 maal per dag om 19:00 2 stuks, dan gedurende 2 dagen 1 maal per dag om 19:00 1 stuk, oraal"
          },
          {
            "url": "http://nictiz.nl/fhir/StructureDefinition/ext-TimeInterval.Period",
            "valuePeriod": {
              "start": "${DATE, T, D, -6}T00:00:00+02:00",
              "end": "${DATE, T, D, +6}T23:59:59+02:00"
            }
          }
        ],
        "modifierExtension": [
          {
            "url": "http://nictiz.nl/fhir/StructureDefinition/ext-InstructionsForUse.RepeatPeriodCyclicalSchedule",
            "valueDuration": {
              "value": 5,
              "unit": "dag",
              "system": "http://unitsofmeasure.org",
              "code": "d"
            }
          }
        ],
        "identifier": [
          {
            "system": "urn:oid:2.16.840.1.113883.2.4.3.11.999.77.632.1",
            "value": "MBH_200_wdsmtd1_WDS_verhoging"
          }
        ],
        "status": "unknown",
        "intent": "order",
        "category": [
          {
            "coding": [
              {
                "system": "http://snomed.info/sct",
                "code": "395067002",
                "display": "optimaliseren van dosering van medicatie"
              }
            ]
          }
        ],
        "medicationReference": {
          "reference": "urn:uuid:c33f0a46-6a95-11ec-0000-020000000000",
          "type": "Medication",
          "display": "ACENOCOUMAROL TABLET 1MG"
        },
        "subject": {
          "reference": "urn:uuid:c33f09b0-6a95-11ec-0000-020000000000",
          "type": "Patient",
          "display": "Patient, M. XXX_Pherai"
        },
        "authoredOn": "${DATE, T, D, -7}T10:30:00+02:00",
        "requester": {
          "reference": "urn:uuid:c33f0aa0-6a95-11ec-0000-020000000000",
          "type": "PractitionerRole",
          "display": "Healthcare professional (role), Tanja de Bakker, Trombosediensten"
        },
        "basedOn": [
          {
            "type": "MedicationRequest",
            "identifier": {
              "system": "urn:oid:2.16.840.1.113883.2.4.3.11.999.77.16076005.1",
              "value": "MBH_200_wdsmtd1_MA"
            },
            "display": "relatie naar medicatieafspraak met identificatie: MBH_200_wdsmtd1_MA || 2.16.840.1.113883.2.4.3.11.999.77.16076005.1"
          }
        ],
        "dosageInstruction": [
          {
            "sequence": 1,
            "timing": {
              "repeat": {
                "extension": [
                  {
                    "url": "http://hl7.org/fhir/StructureDefinition/timing-exact",
                    "valueBoolean": false
                  }
                ],
                "boundsDuration": {
                  "value": 3,
                  "unit": "dag",
                  "system": "http://unitsofmeasure.org",
                  "code": "d"
                },
                "frequency": 1,
                "period": 1,
                "periodUnit": "d",
                "timeOfDay": [
                  "19:00:00"
                ]
              }
            },
            "route": {
              "coding": [
                {
                  "system": "urn:oid:2.16.840.1.113883.2.4.4.9",
                  "code": "9",
                  "display": "oraal"
                }
              ]
            },
            "doseAndRate": [
              {
                "doseQuantity": {
                  "extension": [
                    {
                      "url": "http://hl7.org/fhir/StructureDefinition/iso21090-PQ-translation",
                      "valueQuantity": {
                        "value": 2,
                        "unit": "stuks",
                        "system": "urn:oid:2.16.840.1.113883.2.4.4.1.900.2",
                        "code": "245"
                      }
                    }
                  ],
                  "value": 2,
                  "unit": "stuks",
                  "system": "http://unitsofmeasure.org",
                  "code": "1"
                }
              }
            ]
          },
          {
            "sequence": 2,
            "timing": {
              "repeat": {
                "extension": [
                  {
                    "url": "http://hl7.org/fhir/StructureDefinition/timing-exact",
                    "valueBoolean": false
                  }
                ],
                "boundsDuration": {
                  "value": 2,
                  "unit": "dag",
                  "system": "http://unitsofmeasure.org",
                  "code": "d"
                },
                "frequency": 1,
                "period": 1,
                "periodUnit": "d",
                "timeOfDay": [
                  "19:00:00"
                ]
              }
            },
            "route": {
              "coding": [
                {
                  "system": "urn:oid:2.16.840.1.113883.2.4.4.9",
                  "code": "9",
                  "display": "oraal"
                }
              ]
            },
            "doseAndRate": [
              {
                "doseQuantity": {
                  "extension": [
                    {
                      "url": "http://hl7.org/fhir/StructureDefinition/iso21090-PQ-translation",
                      "valueQuantity": {
                        "value": 1,
                        "unit": "stuk",
                        "system": "urn:oid:2.16.840.1.113883.2.4.4.1.900.2",
                        "code": "245"
                      }
                    }
                  ],
                  "value": 1,
                  "unit": "stuk",
                  "system": "http://unitsofmeasure.org",
                  "code": "1"
                }
              }
            ]
          }
        ],
        "priorPrescription": {
          "type": "MedicationRequest",
          "identifier": {
            "system": "urn:oid:2.16.840.1.113883.2.4.3.11.999.77.632.1",
            "value": "MBH_200_wdsmtd1_WDS_trombosedienst"
          },
          "display": "relatie naar wisselend doseerschema met identificatie: MBH_200_wdsmtd1_WDS_trombosedienst || 2.16.840.1.113883.2.4.3.11.999.77.632.1"
        }
      },
      "request": {
        "method": "POST",
        "url": "MedicationRequest"
      }
    },
    {
      "fullUrl": "urn:uuid:c33f09b0-6a95-11ec-0000-020000000000",
      "resource": {
        "resourceType": "Patient",
        "id": "nl-core-Patient-mp9-M-XXX-Pherai",
        "meta": {
          "profile": [
            "http://nictiz.nl/fhir/StructureDefinition/nl-core-Patient"
          ]
        },
        "identifier": [
          {
            "system": "http://fhir.nl/fhir/NamingSystem/bsn",
            "value": "999900870"
          }
        ],
        "name": [
          {
            "extension": [
              {
                "url": "http://hl7.org/fhir/StructureDefinition/humanname-assembly-order",
                "valueCode": "NL1"
              }
            ],
            "use": "official",
            "text": "M. XXX_Pherai",
            "family": "XXX_Pherai",
            "_family": {
              "extension": [
                {
                  "url": "http://hl7.org/fhir/StructureDefinition/humanname-own-name",
                  "valueString": "XXX_Pherai"
                }
              ]
            },
            "given": [
              "M."
            ],
            "_given": [
              {
                "extension": [
                  {
                    "url": "http://hl7.org/fhir/StructureDefinition/iso21090-EN-qualifier",
                    "valueCode": "IN"
                  }
                ]
              }
            ]
          }
        ],
        "gender": "female",
        "_gender": {
          "extension": [
            {
              "url": "http://nictiz.nl/fhir/StructureDefinition/ext-CodeSpecification",
              "valueCodeableConcept": {
                "coding": [
                  {
                    "system": "http://terminology.hl7.org/CodeSystem/v3-AdministrativeGender",
                    "code": "F",
                    "display": "Vrouw"
                  }
                ]
              }
            }
          ]
        },
        "birthDate": "1985-11-01"
      },
      "request": {
        "method": "POST",
        "url": "Patient"
      }
    },
    {
      "fullUrl": "urn:uuid:c33f0a64-6a95-11ec-0000-020000000000",
      "resource": {
        "resourceType": "PractitionerRole",
        "id": "nl-core-HPrf-PracRol-mp9-000001111-0100-00001111",
        "meta": {
          "profile": [
            "http://nictiz.nl/fhir/StructureDefinition/nl-core-HealthProfessional-PractitionerRole"
          ]
        },
        "practitioner": {
          "reference": "urn:uuid:c33f0a82-6a95-11ec-0000-020000000000",
          "type": "Practitioner",
          "display": "Healthcare professional (person), Peter van Pulver"
        },
        "organization": {
          "reference": "urn:uuid:c33f0adc-6a95-11ec-0000-020000000000",
          "type": "Organization",
          "display": "Healthcare provider (organization), Huisartsenpraktijk Pulver & Partners"
        },
        "specialty": [
          {
            "coding": [
              {
                "system": "urn:oid:2.16.840.1.113883.2.4.6.7",
                "version": "2020-10-23T00:00:00",
                "code": "0100",
                "display": "Huisartsen, niet nader gespecificeerd"
              }
            ]
          }
        ]
      },
      "request": {
        "method": "POST",
        "url": "PractitionerRole"
      }
    },
    {
      "fullUrl": "urn:uuid:c33f0a82-6a95-11ec-0000-020000000000",
      "resource": {
        "resourceType": "Practitioner",
        "id": "nl-core-HPrf-Prac-mp9-2165281100731-000001111",
        "meta": {
          "profile": [
            "http://nictiz.nl/fhir/StructureDefinition/nl-core-HealthProfessional-Practitioner"
          ]
        },
        "identifier": [
          {
            "system": "http://fhir.nl/fhir/NamingSystem/uzi-nr-pers",
            "value": "000001111"
          }
        ],
        "name": [
          {
            "use": "official",
            "text": "Peter van Pulver",
            "family": "van Pulver",
            "_family": {
              "extension": [
                {
                  "url": "http://hl7.org/fhir/StructureDefinition/humanname-own-prefix",
                  "valueString": "van"
                },
                {
                  "url": "http://hl7.org/fhir/StructureDefinition/humanname-own-name",
                  "valueString": "Pulver"
                }
              ]
            },
            "given": [
              "Peter"
            ],
            "_given": [
              {
                "extension": [
                  {
                    "url": "http://hl7.org/fhir/StructureDefinition/iso21090-EN-qualifier",
                    "valueCode": "BR"
                  }
                ]
              }
            ]
          }
        ]
      },
      "request": {
        "method": "POST",
        "url": "Practitioner"
      }
    },
    {
      "fullUrl": "urn:uuid:c33f0aa0-6a95-11ec-0000-020000000000",
      "resource": {
        "resourceType": "PractitionerRole",
        "id": "nl-core-HPrf-PracRol-mp9-222221111-3400-11112222",
        "meta": {
          "profile": [
            "http://nictiz.nl/fhir/StructureDefinition/nl-core-HealthProfessional-PractitionerRole"
          ]
        },
        "practitioner": {
          "reference": "urn:uuid:c33f0abe-6a95-11ec-0000-020000000000",
          "type": "Practitioner",
          "display": "Healthcare professional (person), Tanja de Bakker"
        },
        "organization": {
          "reference": "urn:uuid:c33f0b18-6a95-11ec-0000-020000000000",
          "type": "Organization",
          "display": "Healthcare provider (organization), Trombosedienst Ons Dorp"
        },
        "specialty": [
          {
            "coding": [
              {
                "system": "urn:oid:2.16.840.1.113883.2.4.6.7",
                "version": "2020-10-23T00:00:00",
                "code": "3400",
                "display": "Trombosediensten"
              }
            ]
          }
        ]
      },
      "request": {
        "method": "POST",
        "url": "PractitionerRole"
      }
    },
    {
      "fullUrl": "urn:uuid:c33f0abe-6a95-11ec-0000-020000000000",
      "resource": {
        "resourceType": "Practitioner",
        "id": "nl-core-HPrf-Prac-mp9-2165281100731-222221111",
        "meta": {
          "profile": [
            "http://nictiz.nl/fhir/StructureDefinition/nl-core-HealthProfessional-Practitioner"
          ]
        },
        "identifier": [
          {
            "system": "http://fhir.nl/fhir/NamingSystem/uzi-nr-pers",
            "value": "222221111"
          }
        ],
        "name": [
          {
            "use": "official",
            "text": "Tanja de Bakker",
            "family": "de Bakker",
            "_family": {
              "extension": [
                {
                  "url": "http://hl7.org/fhir/StructureDefinition/humanname-own-prefix",
                  "valueString": "de"
                },
                {
                  "url": "http://hl7.org/fhir/StructureDefinition/humanname-own-name",
                  "valueString": "Bakker"
                }
              ]
            },
            "given": [
              "Tanja"
            ],
            "_given": [
              {
                "extension": [
                  {
                    "url": "http://hl7.org/fhir/StructureDefinition/iso21090-EN-qualifier",
                    "valueCode": "BR"
                  }
                ]
              }
            ]
          }
        ]
      },
      "request": {
        "method": "POST",
        "url": "Practitioner"
      }
    },
    {
      "fullUrl": "urn:uuid:c33f0adc-6a95-11ec-0000-020000000000",
      "resource": {
        "resourceType": "Organization",
        "id": "nl-core-HPrv-Org-mp9-2165281100733-00001111",
        "meta": {
          "profile": [
            "http://nictiz.nl/fhir/StructureDefinition/nl-core-HealthcareProvider-Organization"
          ]
        },
        "identifier": [
          {
            "system": "http://fhir.nl/fhir/NamingSystem/ura",
            "value": "00001111"
          }
        ],
        "name": "Huisartsenpraktijk Pulver & Partners",
        "address": [
          {
            "extension": [
              {
                "url": "http://nictiz.nl/fhir/StructureDefinition/ext-AddressInformation.AddressType",
                "valueCodeableConcept": {
                  "coding": [
                    {
                      "system": "http://terminology.hl7.org/CodeSystem/v3-AddressUse",
                      "code": "WP",
                      "display": "Werkadres"
                    }
                  ]
                }
              }
            ],
            "use": "work",
            "line": [
              "Dorpsstraat 1"
            ],
            "_line": [
              {
                "extension": [
                  {
                    "url": "http://hl7.org/fhir/StructureDefinition/iso21090-ADXP-streetName",
                    "valueString": "Dorpsstraat"
                  },
                  {
                    "url": "http://hl7.org/fhir/StructureDefinition/iso21090-ADXP-houseNumber",
                    "valueString": "1"
                  }
                ]
              }
            ],
            "city": "Ons Dorp",
            "postalCode": "1234AA"
          }
        ]
      },
      "request": {
        "method": "POST",
        "url": "Organization"
      }
    },
    {
      "fullUrl": "urn:uuid:c33f0b18-6a95-11ec-0000-020000000000",
      "resource": {
        "resourceType": "Organization",
        "id": "nl-core-HPrv-Org-mp9-2165281100733-11112222",
        "meta": {
          "profile": [
            "http://nictiz.nl/fhir/StructureDefinition/nl-core-HealthcareProvider-Organization"
          ]
        },
        "identifier": [
          {
            "system": "http://fhir.nl/fhir/NamingSystem/ura",
            "value": "11112222"
          }
        ],
        "type": [
          {
            "coding": [
              {
                "system": "urn:oid:2.16.840.1.113883.2.4.6.7",
                "version": "2020-10-23T00:00:00",
                "code": "3400",
                "display": "Trombosediensten"
              }
            ]
          }
        ],
        "name": "Trombosedienst Ons Dorp",
        "address": [
          {
            "line": [
              "Kerkstraat  28 d"
            ],
            "_line": [
              {
                "extension": [
                  {
                    "url": "http://hl7.org/fhir/StructureDefinition/iso21090-ADXP-streetName",
                    "valueString": "Kerkstraat"
                  },
                  {
                    "url": "http://hl7.org/fhir/StructureDefinition/iso21090-ADXP-houseNumber",
                    "valueString": "28"
                  },
                  {
                    "url": "http://hl7.org/fhir/StructureDefinition/iso21090-ADXP-buildingNumberSuffix",
                    "valueString": "d "
                  }
                ]
              }
            ],
            "city": "Ons Dorp",
            "postalCode": "1332GH"
          }
        ]
      },
      "request": {
        "method": "POST",
        "url": "Organization"
      }
    },
    {
      "fullUrl": "urn:uuid:c33f0a46-6a95-11ec-0000-020000000000",
      "resource": {
        "resourceType": "Medication",
        "id": "nl-core-PhPrd-mp9-216840111388324410-7323",
        "meta": {
          "profile": [
            "http://nictiz.nl/fhir/StructureDefinition/nl-core-PharmaceuticalProduct"
          ]
        },
        "code": {
          "coding": [
            {
              "system": "urn:oid:2.16.840.1.113883.2.4.4.10",
              "code": "7323",
              "display": "ACENOCOUMAROL TABLET 1MG",
              "userSelected": true
            },
            {
              "system": "urn:oid:2.16.840.1.113883.2.4.4.1",
              "code": "20303",
              "display": "ACENOCOUMAROL TABLET 1MG"
            }
          ],
          "text": "ACENOCOUMAROL TABLET 1MG"
        }
      },
      "request": {
        "method": "POST",
        "url": "Medication"
      }
    }
  ]
}