{
  "resourceType": "Bundle",
  "id": "mg-mp-mg-tst-MVE-Scenarioset2-v20",
  "type": "transaction",
  "entry": [
    {
      "fullUrl": "urn:uuid:c33f1c66-6a95-11ec-0000-020000000000",
      "resource": {
        "resourceType": "MedicationDispense",
        "meta": {
          "profile": [
            "http://nictiz.nl/fhir/StructureDefinition/mp-MedicationDispense"
          ]
        },
        "extension": [
          {
            "url": "http://nictiz.nl/fhir/StructureDefinition/ext-PharmaceuticalTreatment.Identifier",
            "valueIdentifier": {
              "system": "urn:oid:2.16.840.1.113883.2.4.3.11.999.77.1.1",
              "value": "MBH_200_toelichting"
            }
          }
        ],
        "identifier": [
          {
            "system": "urn:oid:2.16.840.1.113883.2.4.3.11.999.77.373784005.1",
            "value": "MBH_200_toelichting_MVE"
          }
        ],
        "status": "completed",
        "category": {
          "coding": [
            {
              "system": "http://snomed.info/sct",
              "code": "373784005",
              "display": "verstrekken van medicatie"
            }
          ]
        },
        "medicationReference": {
          "reference": "urn:uuid:c33f1ca2-6a95-11ec-0000-020000000000",
          "type": "Medication",
          "display": "FUROSEMIDE SANDOZ TABLET 40MG"
        },
        "subject": {
          "reference": "urn:uuid:c33f1c48-6a95-11ec-0000-020000000000",
          "type": "Patient",
          "display": "Patient, D. XXX_Dixhoorn"
        },
        "performer": [
          {
            "actor": {
              "reference": "urn:uuid:c33f1cde-6a95-11ec-0000-020000000000",
              "type": "Organization",
              "display": "Healthcare provider (organization), Apotheek De Gulle Gaper"
            }
          }
        ],
        "authorizingPrescription": [
          {
            "type": "MedicationRequest",
            "identifier": {
              "system": "urn:oid:2.16.840.1.113883.2.4.3.11.999.77.52711000146108.1",
              "value": "MBH_200_toelichting_VV"
            },
            "display": "relatie naar verstrekkingsverzoek met identificatie: MBH_200_toelichting_VV || 2.16.840.1.113883.2.4.3.11.999.77.52711000146108.1"
          }
        ],
        "quantity": {
          "extension": [
            {
              "url": "http://hl7.org/fhir/StructureDefinition/iso21090-PQ-translation",
              "valueQuantity": {
                "value": 30,
                "unit": "stuk",
                "system": "urn:oid:2.16.840.1.113883.2.4.4.1.900.2",
                "code": "245"
              }
            }
          ],
          "value": 30,
          "unit": "stuk",
          "system": "http://unitsofmeasure.org",
          "code": "1"
        },
        "whenHandedOver": "${DATE, T, D, -21}T09:02:00+02:00",
        "note": [
          {
            "text": "Extra verstrekkingsverzoek omdat patient medicatie is kwijtgeraakt"
          }
        ]
      },
      "request": {
        "method": "POST",
        "url": "MedicationDispense"
      }
    },
    {
      "fullUrl": "urn:uuid:c33f1c84-6a95-11ec-0000-020000000000",
      "resource": {
        "resourceType": "MedicationDispense",
        "meta": {
          "profile": [
            "http://nictiz.nl/fhir/StructureDefinition/mp-MedicationDispense"
          ]
        },
        "extension": [
          {
            "url": "http://nictiz.nl/fhir/StructureDefinition/ext-PharmaceuticalTreatment.Identifier",
            "valueIdentifier": {
              "system": "urn:oid:2.16.840.1.113883.2.4.3.11.999.77.1.1",
              "value": "MBH_200_aanvullendeinformatiewensen"
            }
          }
        ],
        "identifier": [
          {
            "system": "urn:oid:2.16.840.1.113883.2.4.3.11.999.77.373784005.1",
            "value": "MBH_200_aanvullendeinformatiewensen_MVE"
          }
        ],
        "status": "completed",
        "category": {
          "coding": [
            {
              "system": "http://snomed.info/sct",
              "code": "373784005",
              "display": "verstrekken van medicatie"
            }
          ]
        },
        "medicationReference": {
          "reference": "urn:uuid:c33f1cc0-6a95-11ec-0000-020000000000",
          "type": "Medication",
          "display": "BROXIL CAPSULE 500MG"
        },
        "subject": {
          "reference": "urn:uuid:c33f1c48-6a95-11ec-0000-020000000000",
          "type": "Patient",
          "display": "Patient, D. XXX_Dixhoorn"
        },
        "performer": [
          {
            "actor": {
              "reference": "urn:uuid:c33f1cde-6a95-11ec-0000-020000000000",
              "type": "Organization",
              "display": "Healthcare provider (organization), Apotheek De Gulle Gaper"
            }
          }
        ],
        "authorizingPrescription": [
          {
            "type": "MedicationRequest",
            "identifier": {
              "system": "urn:oid:2.16.840.1.113883.2.4.3.11.999.77.52711000146108.1",
              "value": "MBH_200_aanvullendeinformatiewensen_VV"
            },
            "display": "relatie naar verstrekkingsverzoek met identificatie: MBH_200_aanvullendeinformatiewensen_VV || 2.16.840.1.113883.2.4.3.11.999.77.52711000146108.1"
          }
        ],
        "quantity": {
          "extension": [
            {
              "url": "http://hl7.org/fhir/StructureDefinition/iso21090-PQ-translation",
              "valueQuantity": {
                "value": 30,
                "unit": "stuk",
                "system": "urn:oid:2.16.840.1.113883.2.4.4.1.900.2",
                "code": "245"
              }
            }
          ],
          "value": 30,
          "unit": "stuk",
          "system": "http://unitsofmeasure.org",
          "code": "1"
        },
        "whenHandedOver": "${DATE, T, D, -5}T09:06:00+02:00"
      },
      "request": {
        "method": "POST",
        "url": "MedicationDispense"
      }
    },
    {
      "fullUrl": "urn:uuid:c33f1c48-6a95-11ec-0000-020000000000",
      "resource": {
        "resourceType": "Patient",
        "meta": {
          "profile": [
            "http://nictiz.nl/fhir/StructureDefinition/nl-core-Patient"
          ]
        },
        "identifier": [
          {
            "system": "http://fhir.nl/fhir/NamingSystem/bsn",
            "value": "999900481"
          }
        ],
        "name": [
          {
            "extension": [
              {
                "url": "http://hl7.org/fhir/StructureDefinition/humanname-assembly-order",
                "valueCode": "NL1"
              }
            ],
            "use": "official",
            "text": "D. XXX_Dixhoorn",
            "family": "XXX_Dixhoorn",
            "_family": {
              "extension": [
                {
                  "url": "http://hl7.org/fhir/StructureDefinition/humanname-own-name",
                  "valueString": "XXX_Dixhoorn"
                }
              ]
            },
            "given": [
              "D."
            ],
            "_given": [
              {
                "extension": [
                  {
                    "url": "http://hl7.org/fhir/StructureDefinition/iso21090-EN-qualifier",
                    "valueCode": "IN"
                  }
                ]
              }
            ]
          }
        ],
        "gender": "male",
        "_gender": {
          "extension": [
            {
              "url": "http://nictiz.nl/fhir/StructureDefinition/ext-CodeSpecification",
              "valueCodeableConcept": {
                "coding": [
                  {
                    "system": "http://terminology.hl7.org/CodeSystem/v3-AdministrativeGender",
                    "code": "M",
                    "display": "Man"
                  }
                ]
              }
            }
          ]
        },
        "birthDate": "1963-10-22"
      },
      "request": {
        "method": "POST",
        "url": "Patient"
      }
    },
    {
      "fullUrl": "urn:uuid:c33f1cde-6a95-11ec-0000-020000000000",
      "resource": {
        "resourceType": "Organization",
        "meta": {
          "profile": [
            "http://nictiz.nl/fhir/StructureDefinition/nl-core-HealthcareProvider-Organization"
          ]
        },
        "identifier": [
          {
            "system": "http://fhir.nl/fhir/NamingSystem/ura",
            "value": "01236578"
          }
        ],
        "name": "Apotheek De Gulle Gaper"
      },
      "request": {
        "method": "POST",
        "url": "Organization"
      }
    },
    {
      "fullUrl": "urn:uuid:c33f1ca2-6a95-11ec-0000-020000000000",
      "resource": {
        "resourceType": "Medication",
        "meta": {
          "profile": [
            "http://nictiz.nl/fhir/StructureDefinition/nl-core-PharmaceuticalProduct"
          ]
        },
        "code": {
          "coding": [
            {
              "system": "urn:oid:2.16.840.1.113883.2.4.4.7",
              "code": "598860",
              "display": "FUROSEMIDE SANDOZ TABLET 40MG",
              "userSelected": true
            },
            {
              "system": "urn:oid:2.16.840.1.113883.2.4.4.10",
              "code": "5967",
              "display": "FUROSEMIDE 40MG TABLET"
            },
            {
              "system": "urn:oid:2.16.840.1.113883.2.4.4.1",
              "code": "16810",
              "display": "FUROSEMIDE 40MG TABLET"
            }
          ],
          "text": "FUROSEMIDE SANDOZ TABLET 40MG"
        }
      },
      "request": {
        "method": "POST",
        "url": "Medication"
      }
    },
    {
      "fullUrl": "urn:uuid:c33f1cc0-6a95-11ec-0000-020000000000",
      "resource": {
        "resourceType": "Medication",
        "meta": {
          "profile": [
            "http://nictiz.nl/fhir/StructureDefinition/nl-core-PharmaceuticalProduct"
          ]
        },
        "code": {
          "coding": [
            {
              "system": "urn:oid:2.16.840.1.113883.2.4.4.7",
              "code": "425087",
              "display": "BROXIL CAPSULE 500MG",
              "userSelected": true
            },
            {
              "system": "urn:oid:2.16.840.1.113883.2.4.4.10",
              "code": "17205",
              "display": "FENETICILLINE CAPSULE 500MG"
            },
            {
              "system": "urn:oid:2.16.840.1.113883.2.4.4.1",
              "code": "41092",
              "display": "FENETICILLINE 500MG CAPSULE"
            }
          ],
          "text": "BROXIL CAPSULE 500MG"
        }
      },
      "request": {
        "method": "POST",
        "url": "Medication"
      }
    }
  ]
}