{
  "resourceType": "Bundle",
  "id": "mg-mp-mg-tst-MTD-Scenarioset13-v20",
  "type": "transaction",
  "entry": [
    {
      "fullUrl": "urn:uuid:c33f06c2-6a95-11ec-0000-020000000000",
      "resource": {
        "resourceType": "MedicationAdministration",
        "meta": {
          "profile": [
            "http://nictiz.nl/fhir/StructureDefinition/mp-MedicationAdministration2"
          ]
        },
        "extension": [
          {
            "url": "http://nictiz.nl/fhir/StructureDefinition/ext-MedicationAdministration2.AgreedDateTime",
            "valueDateTime": "${DATE, T, D, -20}T20:00:00+02:00"
          },
          {
            "url": "http://nictiz.nl/fhir/StructureDefinition/ext-AsAgreedIndicator",
            "valueBoolean": true
          },
          {
            "url": "http://nictiz.nl/fhir/StructureDefinition/ext-PharmaceuticalTreatment.Identifier",
            "valueIdentifier": {
              "system": "urn:oid:2.16.840.1.113883.2.4.3.11.999.77.1.1",
              "value": "MBH_200_contactepisode"
            }
          }
        ],
        "identifier": [
          {
            "system": "urn:oid:2.16.840.1.113883.2.4.3.11.999.77.18629005.1",
            "value": "MBH_200_contactepisode_MTD1"
          }
        ],
        "status": "unknown",
        "category": {
          "coding": [
            {
              "system": "http://snomed.info/sct",
              "code": "18629005",
              "display": "toediening van medicatie"
            }
          ]
        },
        "medicationReference": {
          "reference": "urn:uuid:c33f06e0-6a95-11ec-0000-020000000000",
          "type": "Medication",
          "display": "ACENOCOUMAROL TABLET 1MG"
        },
        "subject": {
          "reference": "urn:uuid:c33f0668-6a95-11ec-0000-020000000000",
          "type": "Patient",
          "display": "Patient, R. XXX_Smitsz"
        },
        "context": {
          "extension": [
            {
              "url": "http://nictiz.nl/fhir/StructureDefinition/ext-Context-EpisodeOfCare",
              "valueReference": {
                "type": "EpisodeOfCare",
                "identifier": {
                  "system": "urn:oid:2.16.840.1.113883.2.4.3.11.999.66.9200",
                  "value": "MBH_200_contactepisode_EPISODE1"
                },
                "display": "relatie naar zorgepisode met identificatie: MBH_200_contactepisode_EPISODE1 || 2.16.840.1.113883.2.4.3.11.999.66.9200"
              }
            }
          ],
          "type": "Encounter",
          "identifier": {
            "system": "urn:oid:2.16.840.1.113883.2.4.3.11.999.66.2709",
            "value": "MBH_200_contactepisode_CONTACT2"
          },
          "display": "relatie naar contact met identificatie: MBH_200_contactepisode_CONTACT2 || 2.16.840.1.113883.2.4.3.11.999.66.2709"
        },
        "effectiveDateTime": "${DATE, T, D, -20}T20:30:00+02:00",
        "performer": [
          {
            "actor": {
              "reference": "urn:uuid:c33f0686-6a95-11ec-0000-020000000000",
              "type": "PractitionerRole",
              "display": "Healthcare professional (role), Peter van Pulver, Huisartsen, niet nader gespecificeerd"
            }
          }
        ],
        "request": {
          "extension": [
            {
              "url": "http://nictiz.nl/fhir/StructureDefinition/ext-ResourceCategory",
              "valueCodeableConcept": {
                "coding": [
                  {
                    "system": "http://snomed.info/sct",
                    "code": "395067002",
                    "display": "optimaliseren van dosering van medicatie"
                  }
                ]
              }
            }
          ],
          "type": "MedicationRequest",
          "identifier": {
            "system": "urn:oid:2.16.840.1.113883.2.4.3.11.999.77.632.1",
            "value": "MBH_200_QA1_WDS1"
          },
          "display": "relatie naar wisselend doseerschema met identificatie: MBH_200_QA1_WDS1 || 2.16.840.1.113883.2.4.3.11.999.77.632.1"
        },
        "dosage": {
          "extension": [
            {
              "url": "http://nictiz.nl/fhir/StructureDefinition/ext-MedicationAdministration2.AgreedAmount",
              "valueQuantity": {
                "extension": [
                  {
                    "url": "http://hl7.org/fhir/StructureDefinition/iso21090-PQ-translation",
                    "valueQuantity": {
                      "value": 2,
                      "unit": "stuk",
                      "system": "urn:oid:2.16.840.1.113883.2.4.4.1.900.2",
                      "code": "245"
                    }
                  }
                ],
                "value": 2,
                "unit": "stuk",
                "system": "http://unitsofmeasure.org",
                "code": "1"
              }
            }
          ],
          "route": {
            "coding": [
              {
                "system": "urn:oid:2.16.840.1.113883.2.4.4.9",
                "code": "9",
                "display": "ORAAL"
              }
            ]
          },
          "dose": {
            "extension": [
              {
                "url": "http://hl7.org/fhir/StructureDefinition/iso21090-PQ-translation",
                "valueQuantity": {
                  "value": 2,
                  "unit": "stuk",
                  "system": "urn:oid:2.16.840.1.113883.2.4.4.1.900.2",
                  "code": "245"
                }
              }
            ],
            "value": 2,
            "unit": "stuk",
            "system": "http://unitsofmeasure.org",
            "code": "1"
          }
        }
      },
      "request": {
        "method": "POST",
        "url": "MedicationAdministration"
      }
    },
    {
      "fullUrl": "urn:uuid:c33f0668-6a95-11ec-0000-020000000000",
      "resource": {
        "resourceType": "Patient",
        "meta": {
          "profile": [
            "http://nictiz.nl/fhir/StructureDefinition/nl-core-Patient"
          ]
        },
        "identifier": [
          {
            "system": "http://fhir.nl/fhir/NamingSystem/bsn",
            "value": "999901072"
          }
        ],
        "name": [
          {
            "extension": [
              {
                "url": "http://hl7.org/fhir/StructureDefinition/humanname-assembly-order",
                "valueCode": "NL1"
              }
            ],
            "use": "official",
            "text": "R. XXX_Smitsz",
            "family": "XXX_Smitsz",
            "_family": {
              "extension": [
                {
                  "url": "http://hl7.org/fhir/StructureDefinition/humanname-own-name",
                  "valueString": "XXX_Smitsz"
                }
              ]
            },
            "given": [
              "R."
            ],
            "_given": [
              {
                "extension": [
                  {
                    "url": "http://hl7.org/fhir/StructureDefinition/iso21090-EN-qualifier",
                    "valueCode": "IN"
                  }
                ]
              }
            ]
          }
        ],
        "gender": "female",
        "_gender": {
          "extension": [
            {
              "url": "http://nictiz.nl/fhir/StructureDefinition/ext-CodeSpecification",
              "valueCodeableConcept": {
                "coding": [
                  {
                    "system": "http://terminology.hl7.org/CodeSystem/v3-AdministrativeGender",
                    "code": "F",
                    "display": "Vrouw"
                  }
                ]
              }
            }
          ]
        },
        "birthDate": "1985-11-19"
      },
      "request": {
        "method": "POST",
        "url": "Patient"
      }
    },
    {
      "fullUrl": "urn:uuid:c33f0686-6a95-11ec-0000-020000000000",
      "resource": {
        "resourceType": "PractitionerRole",
        "meta": {
          "profile": [
            "http://nictiz.nl/fhir/StructureDefinition/nl-core-HealthProfessional-PractitionerRole"
          ]
        },
        "practitioner": {
          "reference": "urn:uuid:c33f06a4-6a95-11ec-0000-020000000000",
          "type": "Practitioner",
          "display": "Healthcare professional (person), Peter van Pulver"
        },
        "organization": {
          "reference": "urn:uuid:c33f06fe-6a95-11ec-0000-020000000000",
          "type": "Organization",
          "display": "Healthcare provider (organization), Huisartsenpraktijk Pulver & Partners"
        },
        "specialty": [
          {
            "coding": [
              {
                "system": "urn:oid:2.16.840.1.113883.2.4.6.7",
                "version": "2020-10-23T00:00:00",
                "code": "0100",
                "display": "Huisartsen, niet nader gespecificeerd"
              }
            ]
          }
        ]
      },
      "request": {
        "method": "POST",
        "url": "PractitionerRole"
      }
    },
    {
      "fullUrl": "urn:uuid:c33f06a4-6a95-11ec-0000-020000000000",
      "resource": {
        "resourceType": "Practitioner",
        "meta": {
          "profile": [
            "http://nictiz.nl/fhir/StructureDefinition/nl-core-HealthProfessional-Practitioner"
          ]
        },
        "identifier": [
          {
            "system": "http://fhir.nl/fhir/NamingSystem/uzi-nr-pers",
            "value": "000001111"
          }
        ],
        "name": [
          {
            "use": "official",
            "text": "Peter van Pulver",
            "family": "van Pulver",
            "_family": {
              "extension": [
                {
                  "url": "http://hl7.org/fhir/StructureDefinition/humanname-own-prefix",
                  "valueString": "van"
                },
                {
                  "url": "http://hl7.org/fhir/StructureDefinition/humanname-own-name",
                  "valueString": "Pulver"
                }
              ]
            },
            "given": [
              "Peter"
            ],
            "_given": [
              {
                "extension": [
                  {
                    "url": "http://hl7.org/fhir/StructureDefinition/iso21090-EN-qualifier",
                    "valueCode": "BR"
                  }
                ]
              }
            ]
          }
        ]
      },
      "request": {
        "method": "POST",
        "url": "Practitioner"
      }
    },
    {
      "fullUrl": "urn:uuid:c33f06fe-6a95-11ec-0000-020000000000",
      "resource": {
        "resourceType": "Organization",
        "meta": {
          "profile": [
            "http://nictiz.nl/fhir/StructureDefinition/nl-core-HealthcareProvider-Organization"
          ]
        },
        "identifier": [
          {
            "system": "http://fhir.nl/fhir/NamingSystem/ura",
            "value": "00001111"
          }
        ],
        "name": "Huisartsenpraktijk Pulver & Partners",
        "address": [
          {
            "extension": [
              {
                "url": "http://nictiz.nl/fhir/StructureDefinition/ext-AddressInformation.AddressType",
                "valueCodeableConcept": {
                  "coding": [
                    {
                      "system": "http://terminology.hl7.org/CodeSystem/v3-AddressUse",
                      "code": "WP",
                      "display": "Werkadres"
                    }
                  ]
                }
              }
            ],
            "use": "work",
            "line": [
              "Dorpsstraat 1"
            ],
            "_line": [
              {
                "extension": [
                  {
                    "url": "http://hl7.org/fhir/StructureDefinition/iso21090-ADXP-streetName",
                    "valueString": "Dorpsstraat"
                  },
                  {
                    "url": "http://hl7.org/fhir/StructureDefinition/iso21090-ADXP-houseNumber",
                    "valueString": "1"
                  }
                ]
              }
            ],
            "city": "Ons Dorp",
            "postalCode": "1234AA"
          }
        ]
      },
      "request": {
        "method": "POST",
        "url": "Organization"
      }
    },
    {
      "fullUrl": "urn:uuid:c33f06e0-6a95-11ec-0000-020000000000",
      "resource": {
        "resourceType": "Medication",
        "meta": {
          "profile": [
            "http://nictiz.nl/fhir/StructureDefinition/nl-core-PharmaceuticalProduct"
          ]
        },
        "code": {
          "coding": [
            {
              "system": "urn:oid:2.16.840.1.113883.2.4.4.10",
              "code": "7323",
              "display": "ACENOCOUMAROL TABLET 1MG",
              "userSelected": true
            },
            {
              "system": "urn:oid:2.16.840.1.113883.2.4.4.1",
              "code": "20303",
              "display": "ACENOCOUMAROL TABLET 1MG"
            }
          ],
          "text": "ACENOCOUMAROL TABLET 1MG"
        }
      },
      "request": {
        "method": "POST",
        "url": "Medication"
      }
    }
  ]
}