<Bundle xmlns="http://hl7.org/fhir">
  <id value="mg-mp-mg-tst-MTD-Scenarioset11-v20"/>
  <type value="transaction"/>
  <entry>
    <fullUrl value="urn:uuid:c33f2616-6a95-11ec-0000-020000000000"/>
    <resource>
      <MedicationAdministration>
        <meta>
          <profile value="http://nictiz.nl/fhir/StructureDefinition/mp-MedicationAdministration2"/>
        </meta>
        <text>
          <status value="extensions"/>
          <div xmlns="http://www.w3.org/1999/xhtml">
            <table>
              <caption>Medicatietoediening. Subject: Patient, M. van de XXX_Roelofs. Id: MBH_200_wdsmtd1_MTD1 (urn:oid:2.16.840.1.113883.2.4.3.11.999.77.18629005.1), Categorie: <span title="toediening van medicatie (18629005 - SNOMED CT)">toediening van medicatie</span>, Status: onbekend</caption>
              <tbody>
                <tr>
                  <th>Medicatie</th>
                  <td>ACENOCOUMAROL TABLET 1MG</td>
                </tr>
                <tr>
                  <th>Datum/tijd</th>
                  <td>${DATE, T, D, -20}T20:30:00+02:00</td>
                </tr>
                <tr>
                  <th>Dosering</th>
                  <td>
                    <div>Toedieningsweg: <span title="ORAAL (9 - G-Standaard thesaurus subtabel 0007)">ORAAL</span>
                    </div>
                    <div>Dosering: 1 stuk</div>
                  </td>
                </tr>
              </tbody>
            </table>
          </div>
        </text>
        <extension url="http://nictiz.nl/fhir/StructureDefinition/ext-MedicationAdministration2.AgreedDateTime">
          <valueDateTime value="${DATE, T, D, -20}T20:00:00+02:00"/>
        </extension>
        <extension url="http://nictiz.nl/fhir/StructureDefinition/ext-AsAgreedIndicator">
          <valueBoolean value="true"/>
        </extension>
        <extension url="http://nictiz.nl/fhir/StructureDefinition/ext-PharmaceuticalTreatment.Identifier">
          <valueIdentifier>
            <system value="urn:oid:2.16.840.1.113883.2.4.3.11.999.77.1.1"/>
            <value value="MBH_200_wdsmtd1"/>
          </valueIdentifier>
        </extension>
        <identifier>
          <system value="urn:oid:2.16.840.1.113883.2.4.3.11.999.77.18629005.1"/>
          <value value="MBH_200_wdsmtd1_MTD1"/>
        </identifier>
        <status value="unknown"/>
        <category>
          <coding>
            <system value="http://snomed.info/sct"/>
            <code value="18629005"/>
            <display value="toediening van medicatie"/>
          </coding>
        </category>
        <medicationReference>
          <reference value="urn:uuid:c33f26ac-6a95-11ec-0000-020000000000"/>
          <type value="Medication"/>
          <display value="ACENOCOUMAROL TABLET 1MG"/>
        </medicationReference>
        <subject>
          <reference value="urn:uuid:c33f2580-6a95-11ec-0000-020000000000"/>
          <type value="Patient"/>
          <display value="Patient, M. van de XXX_Roelofs"/>
        </subject>
        <effectiveDateTime value="${DATE, T, D, -20}T20:30:00+02:00"/>
        <performer>
          <actor>
            <reference value="urn:uuid:c33f268e-6a95-11ec-0000-020000000000"/>
            <type value="RelatedPerson"/>
            <display value="Contact person, Toos de Bakker"/>
          </actor>
        </performer>
        <request>
          <extension url="http://nictiz.nl/fhir/StructureDefinition/ext-ResourceCategory">
            <valueCodeableConcept>
              <coding>
                <system value="http://snomed.info/sct"/>
                <code value="395067002"/>
                <display value="optimaliseren van dosering van medicatie"/>
              </coding>
            </valueCodeableConcept>
          </extension>
          <type value="MedicationRequest"/>
          <identifier>
            <system value="urn:oid:2.16.840.1.113883.2.4.3.11.999.77.632.1"/>
            <value value="MBH_200_wdsmtd1_WDS_opstartschema"/>
          </identifier>
          <display value="relatie naar wisselend doseerschema met identificatie: MBH_200_wdsmtd1_WDS_opstartschema || 2.16.840.1.113883.2.4.3.11.999.77.632.1"/>
        </request>
        <dosage>
          <extension url="http://nictiz.nl/fhir/StructureDefinition/ext-MedicationAdministration2.AgreedAmount">
            <valueQuantity>
              <extension url="http://hl7.org/fhir/StructureDefinition/iso21090-PQ-translation">
                <valueQuantity>
                  <value value="2"/>
                  <unit value="stuk"/>
                  <system value="urn:oid:2.16.840.1.113883.2.4.4.1.900.2"/>
                  <code value="245"/>
                </valueQuantity>
              </extension>
              <value value="2"/>
              <unit value="stuk"/>
              <system value="http://unitsofmeasure.org"/>
              <code value="1"/>
            </valueQuantity>
          </extension>
          <route>
            <coding>
              <system value="urn:oid:2.16.840.1.113883.2.4.4.9"/>
              <code value="9"/>
              <display value="ORAAL"/>
            </coding>
          </route>
          <dose>
            <extension url="http://hl7.org/fhir/StructureDefinition/iso21090-PQ-translation">
              <valueQuantity>
                <value value="1"/>
                <unit value="stuk"/>
                <system value="urn:oid:2.16.840.1.113883.2.4.4.1.900.2"/>
                <code value="245"/>
              </valueQuantity>
            </extension>
            <value value="1"/>
            <unit value="stuk"/>
            <system value="http://unitsofmeasure.org"/>
            <code value="1"/>
          </dose>
        </dosage>
      </MedicationAdministration>
    </resource>
    <request>
      <method value="POST"/>
      <url value="MedicationAdministration"/>
    </request>
  </entry>
  <entry>
    <fullUrl value="urn:uuid:c33f2634-6a95-11ec-0000-020000000000"/>
    <resource>
      <MedicationAdministration>
        <meta>
          <profile value="http://nictiz.nl/fhir/StructureDefinition/mp-MedicationAdministration2"/>
        </meta>
        <text>
          <status value="extensions"/>
          <div xmlns="http://www.w3.org/1999/xhtml">
            <table>
              <caption>Medicatietoediening. Subject: Patient, M. van de XXX_Roelofs. Id: MBH_200_wdsmtd1_MTD2 (urn:oid:2.16.840.1.113883.2.4.3.11.999.77.18629005.1), Categorie: <span title="toediening van medicatie (18629005 - SNOMED CT)">toediening van medicatie</span>, Status: onbekend</caption>
              <tbody>
                <tr>
                  <th>Medicatie</th>
                  <td>ACENOCOUMAROL TABLET 1MG</td>
                </tr>
                <tr>
                  <th>Datum/tijd</th>
                  <td>${DATE, T, D, -19}T20:00:00+02:00</td>
                </tr>
                <tr>
                  <th>Dosering</th>
                  <td>
                    <div>Toedieningsweg: <span title="Oraal (9 - G-Standaard thesaurus subtabel 0007)">Oraal</span>
                    </div>
                    <div>Dosering: 1 stuk</div>
                  </td>
                </tr>
              </tbody>
            </table>
          </div>
        </text>
        <extension url="http://nictiz.nl/fhir/StructureDefinition/ext-MedicationAdministration2.AgreedDateTime">
          <valueDateTime value="${DATE, T, D, -19}T20:00:00+02:00"/>
        </extension>
        <extension url="http://nictiz.nl/fhir/StructureDefinition/ext-MedicationAdministration2.ReasonForDeviation">
          <valueCodeableConcept>
            <coding>
              <system value="http://snomed.info/sct"/>
              <code value="406149000"/>
              <display value="toediening van medicatie geweigerd"/>
            </coding>
          </valueCodeableConcept>
        </extension>
        <extension url="http://nictiz.nl/fhir/StructureDefinition/ext-AsAgreedIndicator">
          <valueBoolean value="false"/>
        </extension>
        <extension url="http://nictiz.nl/fhir/StructureDefinition/ext-PharmaceuticalTreatment.Identifier">
          <valueIdentifier>
            <system value="urn:oid:2.16.840.1.113883.2.4.3.11.999.77.1.1"/>
            <value value="MBH_200_wdsmtd1"/>
          </valueIdentifier>
        </extension>
        <identifier>
          <system value="urn:oid:2.16.840.1.113883.2.4.3.11.999.77.18629005.1"/>
          <value value="MBH_200_wdsmtd1_MTD2"/>
        </identifier>
        <status value="unknown"/>
        <category>
          <coding>
            <system value="http://snomed.info/sct"/>
            <code value="18629005"/>
            <display value="toediening van medicatie"/>
          </coding>
        </category>
        <medicationReference>
          <reference value="urn:uuid:c33f26ac-6a95-11ec-0000-020000000000"/>
          <type value="Medication"/>
          <display value="ACENOCOUMAROL TABLET 1MG"/>
        </medicationReference>
        <subject>
          <reference value="urn:uuid:c33f2580-6a95-11ec-0000-020000000000"/>
          <type value="Patient"/>
          <display value="Patient, M. van de XXX_Roelofs"/>
        </subject>
        <effectiveDateTime value="${DATE, T, D, -19}T20:00:00+02:00"/>
        <performer>
          <actor>
            <reference value="urn:uuid:c33f259e-6a95-11ec-0000-020000000000"/>
            <type value="PractitionerRole"/>
            <display value="Healthcare professional (role), Jantien Toedien, Verpleegkundigen, niet nader gespecificeerd"/>
          </actor>
        </performer>
        <request>
          <extension url="http://nictiz.nl/fhir/StructureDefinition/ext-ResourceCategory">
            <valueCodeableConcept>
              <coding>
                <system value="http://snomed.info/sct"/>
                <code value="395067002"/>
                <display value="optimaliseren van dosering van medicatie"/>
              </coding>
            </valueCodeableConcept>
          </extension>
          <type value="MedicationRequest"/>
          <identifier>
            <system value="urn:oid:2.16.840.1.113883.2.4.3.11.999.77.632.1"/>
            <value value="MBH_200_wdsmtd1_WDS_opstartschema"/>
          </identifier>
          <display value="relatie naar wisselend doseerschema met identificatie: MBH_200_wdsmtd1_WDS_opstartschema || 2.16.840.1.113883.2.4.3.11.999.77.632.1"/>
        </request>
        <dosage>
          <extension url="http://nictiz.nl/fhir/StructureDefinition/ext-MedicationAdministration2.AgreedAmount">
            <valueQuantity>
              <extension url="http://hl7.org/fhir/StructureDefinition/iso21090-PQ-translation">
                <valueQuantity>
                  <value value="2"/>
                  <unit value="stuk"/>
                  <system value="urn:oid:2.16.840.1.113883.2.4.4.1.900.2"/>
                  <code value="245"/>
                </valueQuantity>
              </extension>
              <value value="2"/>
              <unit value="stuk"/>
              <system value="http://unitsofmeasure.org"/>
              <code value="1"/>
            </valueQuantity>
          </extension>
          <route>
            <coding>
              <system value="urn:oid:2.16.840.1.113883.2.4.4.9"/>
              <code value="9"/>
              <display value="Oraal"/>
            </coding>
          </route>
          <dose>
            <extension url="http://hl7.org/fhir/StructureDefinition/iso21090-PQ-translation">
              <valueQuantity>
                <value value="1"/>
                <unit value="stuk"/>
                <system value="urn:oid:2.16.840.1.113883.2.4.4.1.900.2"/>
                <code value="245"/>
              </valueQuantity>
            </extension>
            <value value="1"/>
            <unit value="stuk"/>
            <system value="http://unitsofmeasure.org"/>
            <code value="1"/>
          </dose>
        </dosage>
      </MedicationAdministration>
    </resource>
    <request>
      <method value="POST"/>
      <url value="MedicationAdministration"/>
    </request>
  </entry>
  <entry>
    <fullUrl value="urn:uuid:c33f2652-6a95-11ec-0000-020000000000"/>
    <resource>
      <MedicationAdministration>
        <meta>
          <profile value="http://nictiz.nl/fhir/StructureDefinition/mp-MedicationAdministration2"/>
        </meta>
        <text>
          <status value="extensions"/>
          <div xmlns="http://www.w3.org/1999/xhtml">
            <table>
              <caption>Medicatietoediening. Subject: Patient, M. van de XXX_Roelofs. Id: MBH_200_wdsmtd1_MTD3 (urn:oid:2.16.840.1.113883.2.4.3.11.999.77.18629005.1), Categorie: <span title="toediening van medicatie (18629005 - SNOMED CT)">toediening van medicatie</span>, Status: onbekend</caption>
              <tfoot>
                <tr>
                  <td colspan="2">Geprobeerd, maar niet gelukt met de tablet</td>
                </tr>
              </tfoot>
              <tbody>
                <tr>
                  <th>Medicatie</th>
                  <td>ACENOCOUMAROL TABLET 1MG</td>
                </tr>
                <tr>
                  <th>Datum/tijd</th>
                  <td>${DATE, T, D, -17}T20:00:00+02:00</td>
                </tr>
                <tr>
                  <th>Dosering</th>
                  <td>
                    <div>Toedieningsweg: <span title="Oraal (9 - G-Standaard thesaurus subtabel 0007)">Oraal</span>
                    </div>
                    <div>Dosering: 1 stuk</div>
                  </td>
                </tr>
              </tbody>
            </table>
          </div>
        </text>
        <extension url="http://nictiz.nl/fhir/StructureDefinition/ext-MedicationAdministration2.AgreedDateTime">
          <valueDateTime value="${DATE, T, D, -17}T20:00:00+02:00"/>
        </extension>
        <extension url="http://nictiz.nl/fhir/StructureDefinition/ext-MedicationAdministration2.ReasonForDeviation">
          <valueCodeableConcept>
            <coding>
              <system value="http://snomed.info/sct"/>
              <code value="408366001"/>
              <display value="niet in staat om medicatie te gebruiken"/>
            </coding>
          </valueCodeableConcept>
        </extension>
        <extension url="http://nictiz.nl/fhir/StructureDefinition/ext-AsAgreedIndicator">
          <valueBoolean value="false"/>
        </extension>
        <extension url="http://nictiz.nl/fhir/StructureDefinition/ext-PharmaceuticalTreatment.Identifier">
          <valueIdentifier>
            <system value="urn:oid:2.16.840.1.113883.2.4.3.11.999.77.1.1"/>
            <value value="MBH_200_wdsmtd1"/>
          </valueIdentifier>
        </extension>
        <identifier>
          <system value="urn:oid:2.16.840.1.113883.2.4.3.11.999.77.18629005.1"/>
          <value value="MBH_200_wdsmtd1_MTD3"/>
        </identifier>
        <status value="unknown"/>
        <category>
          <coding>
            <system value="http://snomed.info/sct"/>
            <code value="18629005"/>
            <display value="toediening van medicatie"/>
          </coding>
        </category>
        <medicationReference>
          <reference value="urn:uuid:c33f26ac-6a95-11ec-0000-020000000000"/>
          <type value="Medication"/>
          <display value="ACENOCOUMAROL TABLET 1MG"/>
        </medicationReference>
        <subject>
          <reference value="urn:uuid:c33f2580-6a95-11ec-0000-020000000000"/>
          <type value="Patient"/>
          <display value="Patient, M. van de XXX_Roelofs"/>
        </subject>
        <effectiveDateTime value="${DATE, T, D, -17}T20:00:00+02:00"/>
        <performer>
          <actor>
            <reference value="urn:uuid:c33f259e-6a95-11ec-0000-020000000000"/>
            <type value="PractitionerRole"/>
            <display value="Healthcare professional (role), Jantien Toedien, Verpleegkundigen, niet nader gespecificeerd"/>
          </actor>
        </performer>
        <request>
          <extension url="http://nictiz.nl/fhir/StructureDefinition/ext-ResourceCategory">
            <valueCodeableConcept>
              <coding>
                <system value="http://snomed.info/sct"/>
                <code value="395067002"/>
                <display value="optimaliseren van dosering van medicatie"/>
              </coding>
            </valueCodeableConcept>
          </extension>
          <type value="MedicationRequest"/>
          <identifier>
            <system value="urn:oid:2.16.840.1.113883.2.4.3.11.999.77.632.1"/>
            <value value="MBH_200_wdsmtd1_WDS_opstartschema"/>
          </identifier>
          <display value="relatie naar wisselend doseerschema met identificatie: MBH_200_wdsmtd1_WDS_opstartschema || 2.16.840.1.113883.2.4.3.11.999.77.632.1"/>
        </request>
        <note>
          <text value="Geprobeerd, maar niet gelukt met de tablet"/>
        </note>
        <dosage>
          <extension url="http://nictiz.nl/fhir/StructureDefinition/ext-MedicationAdministration2.AgreedAmount">
            <valueQuantity>
              <extension url="http://hl7.org/fhir/StructureDefinition/iso21090-PQ-translation">
                <valueQuantity>
                  <value value="1"/>
                  <unit value="stuk"/>
                  <system value="urn:oid:2.16.840.1.113883.2.4.4.1.900.2"/>
                  <code value="245"/>
                </valueQuantity>
              </extension>
              <value value="1"/>
              <unit value="stuk"/>
              <system value="http://unitsofmeasure.org"/>
              <code value="1"/>
            </valueQuantity>
          </extension>
          <route>
            <coding>
              <system value="urn:oid:2.16.840.1.113883.2.4.4.9"/>
              <code value="9"/>
              <display value="Oraal"/>
            </coding>
          </route>
          <dose>
            <extension url="http://hl7.org/fhir/StructureDefinition/iso21090-PQ-translation">
              <valueQuantity>
                <value value="1"/>
                <unit value="stuk"/>
                <system value="urn:oid:2.16.840.1.113883.2.4.4.1.900.2"/>
                <code value="245"/>
              </valueQuantity>
            </extension>
            <value value="1"/>
            <unit value="stuk"/>
            <system value="http://unitsofmeasure.org"/>
            <code value="1"/>
          </dose>
        </dosage>
      </MedicationAdministration>
    </resource>
    <request>
      <method value="POST"/>
      <url value="MedicationAdministration"/>
    </request>
  </entry>
  <entry>
    <fullUrl value="urn:uuid:c33f2670-6a95-11ec-0000-020000000000"/>
    <resource>
      <MedicationAdministration>
        <meta>
          <profile value="http://nictiz.nl/fhir/StructureDefinition/mp-MedicationAdministration2"/>
        </meta>
        <text>
          <status value="extensions"/>
          <div xmlns="http://www.w3.org/1999/xhtml">
            <table>
              <caption>Medicatietoediening. Subject: Patient, M. van de XXX_Roelofs. Id: MBH_200_wdsmtd1_MTD4 (urn:oid:2.16.840.1.113883.2.4.3.11.999.77.18629005.1), Categorie: <span title="toediening van medicatie (18629005 - SNOMED CT)">toediening van medicatie</span>, Status: onbekend</caption>
              <tbody>
                <tr>
                  <th>Medicatie</th>
                  <td>ACENOCOUMAROL TABLET 1MG</td>
                </tr>
                <tr>
                  <th>Datum/tijd</th>
                  <td>${DATE, T, D, -16}T20:05:00+02:00</td>
                </tr>
                <tr>
                  <th>Dosering</th>
                  <td>
                    <div>Toedieningsweg: <span title="Oraal (9 - G-Standaard thesaurus subtabel 0007)">Oraal</span>
                    </div>
                    <div>Dosering: 0 stuk</div>
                  </td>
                </tr>
              </tbody>
            </table>
          </div>
        </text>
        <extension url="http://nictiz.nl/fhir/StructureDefinition/ext-MedicationAdministration2.AgreedDateTime">
          <valueDateTime value="${DATE, T, D, -16}T20:00:00+02:00"/>
        </extension>
        <extension url="http://nictiz.nl/fhir/StructureDefinition/ext-MedicationAdministration2.ReasonForDeviation">
          <valueCodeableConcept>
            <coding>
              <system value="http://snomed.info/sct"/>
              <code value="153241000146104"/>
              <display value="zorgafnemer niet beschikbaar om medicatie in ontvangst te nemen"/>
            </coding>
          </valueCodeableConcept>
        </extension>
        <extension url="http://nictiz.nl/fhir/StructureDefinition/ext-AsAgreedIndicator">
          <valueBoolean value="false"/>
        </extension>
        <extension url="http://nictiz.nl/fhir/StructureDefinition/ext-PharmaceuticalTreatment.Identifier">
          <valueIdentifier>
            <system value="urn:oid:2.16.840.1.113883.2.4.3.11.999.77.1.1"/>
            <value value="MBH_200_wdsmtd1"/>
          </valueIdentifier>
        </extension>
        <identifier>
          <system value="urn:oid:2.16.840.1.113883.2.4.3.11.999.77.18629005.1"/>
          <value value="MBH_200_wdsmtd1_MTD4"/>
        </identifier>
        <status value="unknown"/>
        <category>
          <coding>
            <system value="http://snomed.info/sct"/>
            <code value="18629005"/>
            <display value="toediening van medicatie"/>
          </coding>
        </category>
        <medicationReference>
          <reference value="urn:uuid:c33f26ac-6a95-11ec-0000-020000000000"/>
          <type value="Medication"/>
          <display value="ACENOCOUMAROL TABLET 1MG"/>
        </medicationReference>
        <subject>
          <reference value="urn:uuid:c33f2580-6a95-11ec-0000-020000000000"/>
          <type value="Patient"/>
          <display value="Patient, M. van de XXX_Roelofs"/>
        </subject>
        <effectiveDateTime value="${DATE, T, D, -16}T20:05:00+02:00"/>
        <performer>
          <actor>
            <reference value="urn:uuid:c33f25da-6a95-11ec-0000-020000000000"/>
            <type value="PractitionerRole"/>
            <display value="Healthcare professional (role), Marleen van der Brand, Verpleegkundigen, niet nader gespecificeerd"/>
          </actor>
        </performer>
        <request>
          <extension url="http://nictiz.nl/fhir/StructureDefinition/ext-ResourceCategory">
            <valueCodeableConcept>
              <coding>
                <system value="http://snomed.info/sct"/>
                <code value="395067002"/>
                <display value="optimaliseren van dosering van medicatie"/>
              </coding>
            </valueCodeableConcept>
          </extension>
          <type value="MedicationRequest"/>
          <identifier>
            <system value="urn:oid:2.16.840.1.113883.2.4.3.11.999.77.632.1"/>
            <value value="MBH_200_wdsmtd1_WDS_opstartschema"/>
          </identifier>
          <display value="relatie naar wisselend doseerschema met identificatie: MBH_200_wdsmtd1_WDS_opstartschema || 2.16.840.1.113883.2.4.3.11.999.77.632.1"/>
        </request>
        <dosage>
          <extension url="http://nictiz.nl/fhir/StructureDefinition/ext-MedicationAdministration2.AgreedAmount">
            <valueQuantity>
              <extension url="http://hl7.org/fhir/StructureDefinition/iso21090-PQ-translation">
                <valueQuantity>
                  <value value="1"/>
                  <unit value="stuk"/>
                  <system value="urn:oid:2.16.840.1.113883.2.4.4.1.900.2"/>
                  <code value="245"/>
                </valueQuantity>
              </extension>
              <value value="1"/>
              <unit value="stuk"/>
              <system value="http://unitsofmeasure.org"/>
              <code value="1"/>
            </valueQuantity>
          </extension>
          <route>
            <coding>
              <system value="urn:oid:2.16.840.1.113883.2.4.4.9"/>
              <code value="9"/>
              <display value="Oraal"/>
            </coding>
          </route>
          <dose>
            <extension url="http://hl7.org/fhir/StructureDefinition/iso21090-PQ-translation">
              <valueQuantity>
                <value value="0"/>
                <unit value="stuk"/>
                <system value="urn:oid:2.16.840.1.113883.2.4.4.1.900.2"/>
                <code value="245"/>
              </valueQuantity>
            </extension>
            <value value="0"/>
            <unit value="stuk"/>
            <system value="http://unitsofmeasure.org"/>
            <code value="1"/>
          </dose>
        </dosage>
      </MedicationAdministration>
    </resource>
    <request>
      <method value="POST"/>
      <url value="MedicationAdministration"/>
    </request>
  </entry>
  <entry>
    <fullUrl value="urn:uuid:c33f2580-6a95-11ec-0000-020000000000"/>
    <resource>
      <Patient>
        <meta>
          <profile value="http://nictiz.nl/fhir/StructureDefinition/nl-core-Patient"/>
        </meta>
        <text>
          <status value="extensions"/>
          <div xmlns="http://www.w3.org/1999/xhtml">
            <div>Id 999900973 (BSN), M. van de XXX_Roelofs, Man, 10 november 1985</div>
          </div>
        </text>
        <identifier>
          <system value="http://fhir.nl/fhir/NamingSystem/bsn"/>
          <value value="999900973"/>
        </identifier>
        <name>
          <extension url="http://hl7.org/fhir/StructureDefinition/humanname-assembly-order">
            <valueCode value="NL1"/>
          </extension>
          <use value="official"/>
          <text value="M. van de XXX_Roelofs"/>
          <family value="van de XXX_Roelofs">
            <extension url="http://hl7.org/fhir/StructureDefinition/humanname-own-prefix">
              <valueString value="van de"/>
            </extension>
            <extension url="http://hl7.org/fhir/StructureDefinition/humanname-own-name">
              <valueString value="XXX_Roelofs"/>
            </extension>
          </family>
          <given value="M.">
            <extension url="http://hl7.org/fhir/StructureDefinition/iso21090-EN-qualifier">
              <valueCode value="IN"/>
            </extension>
          </given>
        </name>
        <gender value="male">
          <extension url="http://nictiz.nl/fhir/StructureDefinition/ext-CodeSpecification">
            <valueCodeableConcept>
              <coding>
                <system value="http://terminology.hl7.org/CodeSystem/v3-AdministrativeGender"/>
                <code value="M"/>
                <display value="Man"/>
              </coding>
            </valueCodeableConcept>
          </extension>
        </gender>
        <birthDate value="1985-11-10"/>
      </Patient>
    </resource>
    <request>
      <method value="POST"/>
      <url value="Patient"/>
    </request>
  </entry>
  <entry>
    <fullUrl value="urn:uuid:c33f268e-6a95-11ec-0000-020000000000"/>
    <resource>
      <RelatedPerson>
        <meta>
          <profile value="http://nictiz.nl/fhir/StructureDefinition/nl-core-ContactPerson"/>
        </meta>
        <text>
          <status value="extensions"/>
          <div xmlns="http://www.w3.org/1999/xhtml">
            <div>Toos de Bakker</div>
            <div>
              <span title="Mantelzorger (100001 - 2.16.840.1.113883.2.4.3.11.60.40.4.23.1)">Mantelzorger</span> van Patient, M. van de XXX_Roelofs</div>
          </div>
        </text>
        <patient>
          <reference value="urn:uuid:c33f2580-6a95-11ec-0000-020000000000"/>
          <type value="Patient"/>
          <display value="Patient, M. van de XXX_Roelofs"/>
        </patient>
        <relationship>
          <coding>
            <system value="urn:oid:2.16.840.1.113883.2.4.3.11.60.40.4.23.1"/>
            <code value="100001"/>
            <display value="Mantelzorger"/>
          </coding>
        </relationship>
        <name>
          <use value="official"/>
          <text value="Toos de Bakker"/>
          <family value="de Bakker">
            <extension url="http://hl7.org/fhir/StructureDefinition/humanname-own-prefix">
              <valueString value="de"/>
            </extension>
            <extension url="http://hl7.org/fhir/StructureDefinition/humanname-own-name">
              <valueString value="Bakker"/>
            </extension>
          </family>
          <given value="Toos">
            <extension url="http://hl7.org/fhir/StructureDefinition/iso21090-EN-qualifier">
              <valueCode value="BR"/>
            </extension>
          </given>
        </name>
      </RelatedPerson>
    </resource>
    <request>
      <method value="POST"/>
      <url value="RelatedPerson"/>
    </request>
  </entry>
  <entry>
    <fullUrl value="urn:uuid:c33f259e-6a95-11ec-0000-020000000000"/>
    <resource>
      <PractitionerRole>
        <meta>
          <profile value="http://nictiz.nl/fhir/StructureDefinition/nl-core-HealthProfessional-PractitionerRole"/>
        </meta>
        <text>
          <status value="extensions"/>
          <div xmlns="http://www.w3.org/1999/xhtml">
            <table>
              <caption>Zorgverlenerrol. </caption>
              <tbody>
                <tr>
                  <th>Zorgverlener</th>
                  <td>
                    <div>Healthcare professional (person), Jantien Toedien</div>
                    <div>Healthcare provider (organization), Thuiszorg Om en Bij</div>
                  </td>
                </tr>
                <tr>
                  <th>Specialisme</th>
                  <td>
                    <span title="Verpleegkundigen, niet nader gespecificeerd (9100 - AGB-medisch specialisme)">Verpleegkundigen, niet nader gespecificeerd</span>
                  </td>
                </tr>
              </tbody>
            </table>
          </div>
        </text>
        <practitioner>
          <reference value="urn:uuid:c33f25bc-6a95-11ec-0000-020000000000"/>
          <type value="Practitioner"/>
          <display value="Healthcare professional (person), Jantien Toedien"/>
        </practitioner>
        <organization>
          <reference value="urn:uuid:c33f26ca-6a95-11ec-0000-020000000000"/>
          <type value="Organization"/>
          <display value="Healthcare provider (organization), Thuiszorg Om en Bij"/>
        </organization>
        <specialty>
          <coding>
            <system value="urn:oid:2.16.840.1.113883.2.4.6.7"/>
            <version value="2020-10-23T00:00:00"/>
            <code value="9100"/>
            <display value="Verpleegkundigen, niet nader gespecificeerd"/>
          </coding>
        </specialty>
      </PractitionerRole>
    </resource>
    <request>
      <method value="POST"/>
      <url value="PractitionerRole"/>
    </request>
  </entry>
  <entry>
    <fullUrl value="urn:uuid:c33f25bc-6a95-11ec-0000-020000000000"/>
    <resource>
      <Practitioner>
        <meta>
          <profile value="http://nictiz.nl/fhir/StructureDefinition/nl-core-HealthProfessional-Practitioner"/>
        </meta>
        <text>
          <status value="extensions"/>
          <div xmlns="http://www.w3.org/1999/xhtml">
            <div>Id 222220000 (UZI-NR-PERS), Jantien Toedien</div>
          </div>
        </text>
        <identifier>
          <system value="http://fhir.nl/fhir/NamingSystem/uzi-nr-pers"/>
          <value value="222220000"/>
        </identifier>
        <name>
          <use value="official"/>
          <text value="Jantien Toedien"/>
          <family value="Toedien">
            <extension url="http://hl7.org/fhir/StructureDefinition/humanname-own-name">
              <valueString value="Toedien"/>
            </extension>
          </family>
          <given value="Jantien">
            <extension url="http://hl7.org/fhir/StructureDefinition/iso21090-EN-qualifier">
              <valueCode value="BR"/>
            </extension>
          </given>
        </name>
      </Practitioner>
    </resource>
    <request>
      <method value="POST"/>
      <url value="Practitioner"/>
    </request>
  </entry>
  <entry>
    <fullUrl value="urn:uuid:c33f25da-6a95-11ec-0000-020000000000"/>
    <resource>
      <PractitionerRole>
        <meta>
          <profile value="http://nictiz.nl/fhir/StructureDefinition/nl-core-HealthProfessional-PractitionerRole"/>
        </meta>
        <text>
          <status value="extensions"/>
          <div xmlns="http://www.w3.org/1999/xhtml">
            <table>
              <caption>Zorgverlenerrol. </caption>
              <tbody>
                <tr>
                  <th>Zorgverlener</th>
                  <td>
                    <div>Healthcare professional (person), Marleen van der Brand</div>
                    <div>Healthcare provider (organization), Thuiszorg Om en Bij</div>
                  </td>
                </tr>
                <tr>
                  <th>Specialisme</th>
                  <td>
                    <span title="Verpleegkundigen, niet nader gespecificeerd (9100 - AGB-medisch specialisme)">Verpleegkundigen, niet nader gespecificeerd</span>
                  </td>
                </tr>
              </tbody>
            </table>
          </div>
        </text>
        <practitioner>
          <reference value="urn:uuid:c33f25f8-6a95-11ec-0000-020000000000"/>
          <type value="Practitioner"/>
          <display value="Healthcare professional (person), Marleen van der Brand"/>
        </practitioner>
        <organization>
          <reference value="urn:uuid:c33f26ca-6a95-11ec-0000-020000000000"/>
          <type value="Organization"/>
          <display value="Healthcare provider (organization), Thuiszorg Om en Bij"/>
        </organization>
        <specialty>
          <coding>
            <system value="urn:oid:2.16.840.1.113883.2.4.6.7"/>
            <version value="2020-10-23T00:00:00"/>
            <code value="9100"/>
            <display value="Verpleegkundigen, niet nader gespecificeerd"/>
          </coding>
        </specialty>
      </PractitionerRole>
    </resource>
    <request>
      <method value="POST"/>
      <url value="PractitionerRole"/>
    </request>
  </entry>
  <entry>
    <fullUrl value="urn:uuid:c33f25f8-6a95-11ec-0000-020000000000"/>
    <resource>
      <Practitioner>
        <meta>
          <profile value="http://nictiz.nl/fhir/StructureDefinition/nl-core-HealthProfessional-Practitioner"/>
        </meta>
        <text>
          <status value="extensions"/>
          <div xmlns="http://www.w3.org/1999/xhtml">
            <div>Id 111110000 (UZI-NR-PERS), Marleen van der Brand</div>
          </div>
        </text>
        <identifier>
          <system value="http://fhir.nl/fhir/NamingSystem/uzi-nr-pers"/>
          <value value="111110000"/>
        </identifier>
        <name>
          <use value="official"/>
          <text value="Marleen van der Brand"/>
          <family value="van der Brand">
            <extension url="http://hl7.org/fhir/StructureDefinition/humanname-own-prefix">
              <valueString value="van der"/>
            </extension>
            <extension url="http://hl7.org/fhir/StructureDefinition/humanname-own-name">
              <valueString value="Brand"/>
            </extension>
          </family>
          <given value="Marleen">
            <extension url="http://hl7.org/fhir/StructureDefinition/iso21090-EN-qualifier">
              <valueCode value="BR"/>
            </extension>
          </given>
        </name>
      </Practitioner>
    </resource>
    <request>
      <method value="POST"/>
      <url value="Practitioner"/>
    </request>
  </entry>
  <entry>
    <fullUrl value="urn:uuid:c33f26ca-6a95-11ec-0000-020000000000"/>
    <resource>
      <Organization>
        <meta>
          <profile value="http://nictiz.nl/fhir/StructureDefinition/nl-core-HealthcareProvider-Organization"/>
        </meta>
        <text>
          <status value="extensions"/>
          <div xmlns="http://www.w3.org/1999/xhtml">
            <table>
              <caption>Organisatie. Id: 11110000 (URA)</caption>
              <tbody>
                <tr>
                  <th>Naam</th>
                  <td>Thuiszorg Om en Bij</td>
                </tr>
                <tr>
                  <th>Type</th>
                  <td>
                    <span title="Thuiszorg (T2 - organization-type)">Thuiszorg</span>
                  </td>
                </tr>
                <tr>
                  <th>Adres</th>
                  <td>Voorstraat 1, 1223BA Ons Dorp</td>
                </tr>
              </tbody>
            </table>
          </div>
        </text>
        <identifier>
          <system value="http://fhir.nl/fhir/NamingSystem/ura"/>
          <value value="11110000"/>
        </identifier>
        <type>
          <coding>
            <system value="http://nictiz.nl/fhir/NamingSystem/organization-type"/>
            <code value="T2"/>
            <display value="Thuiszorg"/>
          </coding>
        </type>
        <name value="Thuiszorg Om en Bij"/>
        <address>
          <line value="Voorstraat 1">
            <extension url="http://hl7.org/fhir/StructureDefinition/iso21090-ADXP-streetName">
              <valueString value="Voorstraat"/>
            </extension>
            <extension url="http://hl7.org/fhir/StructureDefinition/iso21090-ADXP-houseNumber">
              <valueString value="1"/>
            </extension>
          </line>
          <city value="Ons Dorp"/>
          <postalCode value="1223BA"/>
        </address>
      </Organization>
    </resource>
    <request>
      <method value="POST"/>
      <url value="Organization"/>
    </request>
  </entry>
  <entry>
    <fullUrl value="urn:uuid:c33f26ac-6a95-11ec-0000-020000000000"/>
    <resource>
      <Medication>
        <meta>
          <profile value="http://nictiz.nl/fhir/StructureDefinition/nl-core-PharmaceuticalProduct"/>
        </meta>
        <text>
          <status value="extensions"/>
          <div xmlns="http://www.w3.org/1999/xhtml">
            <table>
              <tbody>
                <tr>
                  <th>Code</th>
                  <td>
                    <span title="ACENOCOUMAROL TABLET 1MG (7323 - G-Standaard PRK)">ACENOCOUMAROL TABLET 1MG</span>
                  </td>
                </tr>
              </tbody>
            </table>
          </div>
        </text>
        <code>
          <coding>
            <system value="urn:oid:2.16.840.1.113883.2.4.4.10"/>
            <code value="7323"/>
            <display value="ACENOCOUMAROL TABLET 1MG"/>
            <userSelected value="true"/>
          </coding>
          <coding>
            <system value="urn:oid:2.16.840.1.113883.2.4.4.1"/>
            <code value="20303"/>
            <display value="ACENOCOUMAROL TABLET 1MG"/>
          </coding>
          <text value="ACENOCOUMAROL TABLET 1MG"/>
        </code>
      </Medication>
    </resource>
    <request>
      <method value="POST"/>
      <url value="Medication"/>
    </request>
  </entry>
</Bundle>
