{
  "resourceType": "Bundle",
  "id": "mg-mp-mg-tst-TA-Scenarioset0-v20",
  "type": "transaction",
  "entry": [
    {
      "fullUrl": "urn:uuid:c33f062c-6a95-11ec-0000-020000000000",
      "resource": {
        "resourceType": "MedicationDispense",
        "meta": {
          "profile": [
            "http://nictiz.nl/fhir/StructureDefinition/mp-AdministrationAgreement"
          ]
        },
        "extension": [
          {
            "url": "http://nictiz.nl/fhir/StructureDefinition/ext-AdministrationAgreement.AdministrationAgreementDateTime",
            "valueDateTime": "${DATE, T, D, -20}T09:00:00+02:00"
          },
          {
            "url": "http://nictiz.nl/fhir/StructureDefinition/ext-RenderedDosageInstruction",
            "valueString": "Vanaf T - 20 dagen, tot en met T + 9 dagen, 2 maal per dag 1 stuk, oraal"
          },
          {
            "url": "http://nictiz.nl/fhir/StructureDefinition/ext-TimeInterval.Period",
            "valuePeriod": {
              "start": "${DATE, T, D, -20}T00:00:00+02:00",
              "end": "${DATE, T, D, +9}T23:59:59+02:00"
            }
          },
          {
            "url": "http://nictiz.nl/fhir/StructureDefinition/ext-PharmaceuticalTreatment.Identifier",
            "valueIdentifier": {
              "system": "urn:oid:2.16.840.1.113883.2.4.3.11.999.77.1.1",
              "value": "MBH_200_QA1"
            }
          }
        ],
        "identifier": [
          {
            "system": "urn:oid:2.16.840.1.113883.2.4.3.11.999.77.422037009.1",
            "value": "MBH_200_QA1_TA"
          }
        ],
        "status": "unknown",
        "category": {
          "coding": [
            {
              "system": "http://snomed.info/sct",
              "code": "422037009",
              "display": "toedieningsafspraak"
            }
          ]
        },
        "medicationReference": {
          "reference": "urn:uuid:c33f06e0-6a95-11ec-0000-020000000000",
          "type": "Medication",
          "display": "IBUPROFEN PCH TABLET 600MG"
        },
        "subject": {
          "reference": "urn:uuid:c33f060e-6a95-11ec-0000-020000000000",
          "type": "Patient",
          "display": "Patient, R. van XXX_Sonnenberg"
        },
        "performer": [
          {
            "actor": {
              "reference": "urn:uuid:c33f0794-6a95-11ec-0000-020000000000",
              "type": "Organization",
              "display": "Healthcare provider (organization), Apotheek De Gulle Gaper"
            }
          }
        ],
        "authorizingPrescription": [
          {
            "type": "MedicationRequest",
            "identifier": {
              "system": "urn:oid:2.16.840.1.113883.2.4.3.11.999.77.16076005.1",
              "value": "MBH_200_QA1_MA"
            },
            "display": "relatie naar medicatieafspraak met identificatie: MBH_200_QA1_MA || 2.16.840.1.113883.2.4.3.11.999.77.16076005.1"
          }
        ],
        "dosageInstruction": [
          {
            "timing": {
              "repeat": {
                "frequency": 2,
                "period": 1,
                "periodUnit": "d"
              }
            },
            "route": {
              "coding": [
                {
                  "system": "urn:oid:2.16.840.1.113883.2.4.4.9",
                  "code": "9",
                  "display": "oraal"
                }
              ]
            },
            "doseAndRate": [
              {
                "doseQuantity": {
                  "extension": [
                    {
                      "url": "http://hl7.org/fhir/StructureDefinition/iso21090-PQ-translation",
                      "valueQuantity": {
                        "value": 1,
                        "unit": "stuk",
                        "system": "urn:oid:2.16.840.1.113883.2.4.4.1.900.2",
                        "code": "245"
                      }
                    }
                  ],
                  "value": 1,
                  "unit": "stuk",
                  "system": "http://unitsofmeasure.org",
                  "code": "1"
                }
              }
            ]
          }
        ]
      },
      "request": {
        "method": "POST",
        "url": "MedicationDispense"
      }
    },
    {
      "fullUrl": "urn:uuid:c33f064a-6a95-11ec-0000-020000000000",
      "resource": {
        "resourceType": "MedicationDispense",
        "meta": {
          "profile": [
            "http://nictiz.nl/fhir/StructureDefinition/mp-AdministrationAgreement"
          ]
        },
        "extension": [
          {
            "url": "http://nictiz.nl/fhir/StructureDefinition/ext-AdministrationAgreement.AdministrationAgreementDateTime",
            "valueDateTime": "${DATE, T, D, -100}T09:04:00+02:00"
          },
          {
            "url": "http://nictiz.nl/fhir/StructureDefinition/ext-RenderedDosageInstruction",
            "valueString": "Vanaf T - 100 dagen, tot en met T - 72 dagen, 1 maal per dag 10 ml, oraal"
          },
          {
            "url": "http://nictiz.nl/fhir/StructureDefinition/ext-TimeInterval.Period",
            "valuePeriod": {
              "start": "${DATE, T, D, -100}T00:00:00+02:00",
              "end": "${DATE, T, D, -72}T23:59:59+02:00"
            }
          },
          {
            "url": "http://nictiz.nl/fhir/StructureDefinition/ext-PharmaceuticalTreatment.Identifier",
            "valueIdentifier": {
              "system": "urn:oid:2.16.840.1.113883.2.4.3.11.999.77.1.1",
              "value": "MBH_200_QA2"
            }
          }
        ],
        "identifier": [
          {
            "system": "urn:oid:2.16.840.1.113883.2.4.3.11.999.77.422037009.1",
            "value": "MBH_200_QA2_TA"
          }
        ],
        "status": "unknown",
        "category": {
          "coding": [
            {
              "system": "http://snomed.info/sct",
              "code": "422037009",
              "display": "toedieningsafspraak"
            }
          ]
        },
        "medicationReference": {
          "reference": "urn:uuid:c33f06fe-6a95-11ec-0000-020000000000",
          "type": "Medication",
          "display": "XPRAEP SIROOP 2MG/ML"
        },
        "subject": {
          "reference": "urn:uuid:c33f060e-6a95-11ec-0000-020000000000",
          "type": "Patient",
          "display": "Patient, R. van XXX_Sonnenberg"
        },
        "performer": [
          {
            "actor": {
              "reference": "urn:uuid:c33f0794-6a95-11ec-0000-020000000000",
              "type": "Organization",
              "display": "Healthcare provider (organization), Apotheek De Gulle Gaper"
            }
          }
        ],
        "authorizingPrescription": [
          {
            "type": "MedicationRequest",
            "identifier": {
              "system": "urn:oid:2.16.840.1.113883.2.4.3.11.999.77.16076005.1",
              "value": "MBH_200_QA2_MA"
            },
            "display": "relatie naar medicatieafspraak met identificatie: MBH_200_QA2_MA || 2.16.840.1.113883.2.4.3.11.999.77.16076005.1"
          }
        ],
        "dosageInstruction": [
          {
            "timing": {
              "repeat": {
                "frequency": 1,
                "period": 1,
                "periodUnit": "d"
              }
            },
            "route": {
              "coding": [
                {
                  "system": "urn:oid:2.16.840.1.113883.2.4.4.9",
                  "code": "9",
                  "display": "oraal"
                }
              ]
            },
            "doseAndRate": [
              {
                "doseQuantity": {
                  "extension": [
                    {
                      "url": "http://hl7.org/fhir/StructureDefinition/iso21090-PQ-translation",
                      "valueQuantity": {
                        "value": 10,
                        "unit": "milliliter",
                        "system": "urn:oid:2.16.840.1.113883.2.4.4.1.900.2",
                        "code": "233"
                      }
                    }
                  ],
                  "value": 10,
                  "unit": "milliliter",
                  "system": "http://unitsofmeasure.org",
                  "code": "ml"
                }
              }
            ]
          }
        ]
      },
      "request": {
        "method": "POST",
        "url": "MedicationDispense"
      }
    },
    {
      "fullUrl": "urn:uuid:c33f0668-6a95-11ec-0000-020000000000",
      "resource": {
        "resourceType": "MedicationDispense",
        "meta": {
          "profile": [
            "http://nictiz.nl/fhir/StructureDefinition/mp-AdministrationAgreement"
          ]
        },
        "extension": [
          {
            "url": "http://nictiz.nl/fhir/StructureDefinition/ext-AdministrationAgreement.AdministrationAgreementDateTime",
            "valueDateTime": "${DATE, T, D, -50}T09:10:00+02:00"
          },
          {
            "url": "http://nictiz.nl/fhir/StructureDefinition/ext-RenderedDosageInstruction",
            "valueString": "Vanaf T - 50 dagen, tot en met T - 11 dagen, 2 maal per dag 50 ml, oraal"
          },
          {
            "url": "http://nictiz.nl/fhir/StructureDefinition/ext-TimeInterval.Period",
            "valuePeriod": {
              "start": "${DATE, T, D, -50}T00:00:00+02:00",
              "end": "${DATE, T, D, -11}T23:59:59+02:00"
            }
          },
          {
            "url": "http://nictiz.nl/fhir/StructureDefinition/ext-PharmaceuticalTreatment.Identifier",
            "valueIdentifier": {
              "system": "urn:oid:2.16.840.1.113883.2.4.3.11.999.77.1.1",
              "value": "MBH_200_QA3"
            }
          }
        ],
        "identifier": [
          {
            "system": "urn:oid:2.16.840.1.113883.2.4.3.11.999.77.422037009.1",
            "value": "MBH_200_QA3_TA"
          }
        ],
        "status": "unknown",
        "category": {
          "coding": [
            {
              "system": "http://snomed.info/sct",
              "code": "422037009",
              "display": "toedieningsafspraak"
            }
          ]
        },
        "medicationReference": {
          "reference": "urn:uuid:c33f071c-6a95-11ec-0000-020000000000",
          "type": "Medication",
          "display": "NUTRIDRINK BANAANSMAAK"
        },
        "subject": {
          "reference": "urn:uuid:c33f060e-6a95-11ec-0000-020000000000",
          "type": "Patient",
          "display": "Patient, R. van XXX_Sonnenberg"
        },
        "performer": [
          {
            "actor": {
              "reference": "urn:uuid:c33f0794-6a95-11ec-0000-020000000000",
              "type": "Organization",
              "display": "Healthcare provider (organization), Apotheek De Gulle Gaper"
            }
          }
        ],
        "authorizingPrescription": [
          {
            "type": "MedicationRequest",
            "identifier": {
              "system": "urn:oid:2.16.840.1.113883.2.4.3.11.999.77.16076005.1",
              "value": "MBH_200_QA3_MA"
            },
            "display": "relatie naar medicatieafspraak met identificatie: MBH_200_QA3_MA || 2.16.840.1.113883.2.4.3.11.999.77.16076005.1"
          }
        ],
        "dosageInstruction": [
          {
            "timing": {
              "repeat": {
                "frequency": 2,
                "period": 1,
                "periodUnit": "d"
              }
            },
            "route": {
              "coding": [
                {
                  "system": "urn:oid:2.16.840.1.113883.2.4.4.9",
                  "code": "9",
                  "display": "oraal"
                }
              ]
            },
            "doseAndRate": [
              {
                "doseQuantity": {
                  "extension": [
                    {
                      "url": "http://hl7.org/fhir/StructureDefinition/iso21090-PQ-translation",
                      "valueQuantity": {
                        "value": 50,
                        "unit": "milliliter",
                        "system": "urn:oid:2.16.840.1.113883.2.4.4.1.900.2",
                        "code": "233"
                      }
                    }
                  ],
                  "value": 50,
                  "unit": "milliliter",
                  "system": "http://unitsofmeasure.org",
                  "code": "ml"
                }
              }
            ]
          }
        ]
      },
      "request": {
        "method": "POST",
        "url": "MedicationDispense"
      }
    },
    {
      "fullUrl": "urn:uuid:c33f0686-6a95-11ec-0000-020000000000",
      "resource": {
        "resourceType": "MedicationDispense",
        "meta": {
          "profile": [
            "http://nictiz.nl/fhir/StructureDefinition/mp-AdministrationAgreement"
          ]
        },
        "extension": [
          {
            "url": "http://nictiz.nl/fhir/StructureDefinition/ext-AdministrationAgreement.AdministrationAgreementDateTime",
            "valueDateTime": "${DATE, T, D, -10}T09:12:00+02:00"
          },
          {
            "url": "http://nictiz.nl/fhir/StructureDefinition/ext-RenderedDosageInstruction",
            "valueString": "Vanaf T - 10 dagen, tot en met T + 19 dagen, 1 maal per dag 1 stuk, oraal"
          },
          {
            "url": "http://nictiz.nl/fhir/StructureDefinition/ext-TimeInterval.Period",
            "valuePeriod": {
              "start": "${DATE, T, D, -10}T00:00:00+02:00",
              "end": "${DATE, T, D, +19}T23:59:59+02:00"
            }
          },
          {
            "url": "http://nictiz.nl/fhir/StructureDefinition/ext-PharmaceuticalTreatment.Identifier",
            "valueIdentifier": {
              "system": "urn:oid:2.16.840.1.113883.2.4.3.11.999.77.1.1",
              "value": "MBH_200_QA4"
            }
          }
        ],
        "identifier": [
          {
            "system": "urn:oid:2.16.840.1.113883.2.4.3.11.999.77.422037009.1",
            "value": "MBH_200_QA4_TA"
          }
        ],
        "status": "unknown",
        "category": {
          "coding": [
            {
              "system": "http://snomed.info/sct",
              "code": "422037009",
              "display": "toedieningsafspraak"
            }
          ]
        },
        "medicationReference": {
          "reference": "urn:uuid:c33f073a-6a95-11ec-0000-020000000000",
          "type": "Medication",
          "display": "ASPIRINE TABLET 100MG"
        },
        "subject": {
          "reference": "urn:uuid:c33f060e-6a95-11ec-0000-020000000000",
          "type": "Patient",
          "display": "Patient, R. van XXX_Sonnenberg"
        },
        "performer": [
          {
            "actor": {
              "reference": "urn:uuid:c33f0794-6a95-11ec-0000-020000000000",
              "type": "Organization",
              "display": "Healthcare provider (organization), Apotheek De Gulle Gaper"
            }
          }
        ],
        "authorizingPrescription": [
          {
            "type": "MedicationRequest",
            "identifier": {
              "system": "urn:oid:2.16.840.1.113883.2.4.3.11.999.77.16076005.1",
              "value": "MBH_200_QA4_MA"
            },
            "display": "relatie naar medicatieafspraak met identificatie: MBH_200_QA4_MA || 2.16.840.1.113883.2.4.3.11.999.77.16076005.1"
          }
        ],
        "dosageInstruction": [
          {
            "timing": {
              "repeat": {
                "frequency": 1,
                "period": 1,
                "periodUnit": "d"
              }
            },
            "route": {
              "coding": [
                {
                  "system": "urn:oid:2.16.840.1.113883.2.4.4.9",
                  "code": "9",
                  "display": "oraal"
                }
              ]
            },
            "doseAndRate": [
              {
                "doseQuantity": {
                  "extension": [
                    {
                      "url": "http://hl7.org/fhir/StructureDefinition/iso21090-PQ-translation",
                      "valueQuantity": {
                        "value": 1,
                        "unit": "stuk",
                        "system": "urn:oid:2.16.840.1.113883.2.4.4.1.900.2",
                        "code": "245"
                      }
                    }
                  ],
                  "value": 1,
                  "unit": "stuk",
                  "system": "http://unitsofmeasure.org",
                  "code": "1"
                }
              }
            ]
          }
        ]
      },
      "request": {
        "method": "POST",
        "url": "MedicationDispense"
      }
    },
    {
      "fullUrl": "urn:uuid:c33f06a4-6a95-11ec-0000-020000000000",
      "resource": {
        "resourceType": "MedicationDispense",
        "meta": {
          "profile": [
            "http://nictiz.nl/fhir/StructureDefinition/mp-AdministrationAgreement"
          ]
        },
        "extension": [
          {
            "url": "http://nictiz.nl/fhir/StructureDefinition/ext-AdministrationAgreement.AdministrationAgreementDateTime",
            "valueDateTime": "${DATE, T, D, -50}T09:15:00+02:00"
          },
          {
            "url": "http://nictiz.nl/fhir/StructureDefinition/ext-RenderedDosageInstruction",
            "valueString": "Vanaf T - 50 dagen, tot en met T - 44 dagen, 4 maal per dag 2 stuks, oraal"
          },
          {
            "url": "http://nictiz.nl/fhir/StructureDefinition/ext-TimeInterval.Period",
            "valuePeriod": {
              "start": "${DATE, T, D, -50}T00:00:00+02:00",
              "end": "${DATE, T, D, -44}T23:59:59+02:00"
            }
          },
          {
            "url": "http://nictiz.nl/fhir/StructureDefinition/ext-PharmaceuticalTreatment.Identifier",
            "valueIdentifier": {
              "system": "urn:oid:2.16.840.1.113883.2.4.3.11.999.77.1.1",
              "value": "MBH_200_QA5"
            }
          }
        ],
        "identifier": [
          {
            "system": "urn:oid:2.16.840.1.113883.2.4.3.11.999.77.422037009.1",
            "value": "MBH_200_QA5_TA"
          }
        ],
        "status": "unknown",
        "category": {
          "coding": [
            {
              "system": "http://snomed.info/sct",
              "code": "422037009",
              "display": "toedieningsafspraak"
            }
          ]
        },
        "medicationReference": {
          "reference": "urn:uuid:c33f0758-6a95-11ec-0000-020000000000",
          "type": "Medication",
          "display": "PARACETAMOL SANDOZ TABLET 500MG"
        },
        "subject": {
          "reference": "urn:uuid:c33f060e-6a95-11ec-0000-020000000000",
          "type": "Patient",
          "display": "Patient, R. van XXX_Sonnenberg"
        },
        "performer": [
          {
            "actor": {
              "reference": "urn:uuid:c33f0794-6a95-11ec-0000-020000000000",
              "type": "Organization",
              "display": "Healthcare provider (organization), Apotheek De Gulle Gaper"
            }
          }
        ],
        "authorizingPrescription": [
          {
            "type": "MedicationRequest",
            "identifier": {
              "system": "urn:oid:2.16.840.1.113883.2.4.3.11.999.77.16076005.1",
              "value": "MBH_200_QA5_MA"
            },
            "display": "relatie naar medicatieafspraak met identificatie: MBH_200_QA5_MA || 2.16.840.1.113883.2.4.3.11.999.77.16076005.1"
          }
        ],
        "dosageInstruction": [
          {
            "timing": {
              "repeat": {
                "frequency": 4,
                "period": 1,
                "periodUnit": "d"
              }
            },
            "route": {
              "coding": [
                {
                  "system": "urn:oid:2.16.840.1.113883.2.4.4.9",
                  "code": "9",
                  "display": "oraal"
                }
              ]
            },
            "doseAndRate": [
              {
                "doseQuantity": {
                  "extension": [
                    {
                      "url": "http://hl7.org/fhir/StructureDefinition/iso21090-PQ-translation",
                      "valueQuantity": {
                        "value": 2,
                        "unit": "stuk",
                        "system": "urn:oid:2.16.840.1.113883.2.4.4.1.900.2",
                        "code": "245"
                      }
                    }
                  ],
                  "value": 2,
                  "unit": "stuk",
                  "system": "http://unitsofmeasure.org",
                  "code": "1"
                }
              }
            ]
          }
        ]
      },
      "request": {
        "method": "POST",
        "url": "MedicationDispense"
      }
    },
    {
      "fullUrl": "urn:uuid:c33f06c2-6a95-11ec-0000-020000000000",
      "resource": {
        "resourceType": "MedicationDispense",
        "meta": {
          "profile": [
            "http://nictiz.nl/fhir/StructureDefinition/mp-AdministrationAgreement"
          ]
        },
        "extension": [
          {
            "url": "http://nictiz.nl/fhir/StructureDefinition/ext-AdministrationAgreement.AdministrationAgreementDateTime",
            "valueDateTime": "${DATE, T, D, -5}T09:18:00+02:00"
          },
          {
            "url": "http://nictiz.nl/fhir/StructureDefinition/ext-RenderedDosageInstruction",
            "valueString": "Vanaf T - 5 dagen, tot en met T + 1 dag, 3 maal per dag 1 stuk, oraal"
          },
          {
            "url": "http://nictiz.nl/fhir/StructureDefinition/ext-TimeInterval.Period",
            "valuePeriod": {
              "start": "${DATE, T, D, -5}T00:00:00+02:00",
              "end": "${DATE, T, D, +1}T23:59:59+02:00"
            }
          },
          {
            "url": "http://nictiz.nl/fhir/StructureDefinition/ext-PharmaceuticalTreatment.Identifier",
            "valueIdentifier": {
              "system": "urn:oid:2.16.840.1.113883.2.4.3.11.999.77.1.1",
              "value": "MBH_200_QA6"
            }
          }
        ],
        "identifier": [
          {
            "system": "urn:oid:2.16.840.1.113883.2.4.3.11.999.77.422037009.1",
            "value": "MBH_200_QA6_TA"
          }
        ],
        "status": "unknown",
        "category": {
          "coding": [
            {
              "system": "http://snomed.info/sct",
              "code": "422037009",
              "display": "toedieningsafspraak"
            }
          ]
        },
        "medicationReference": {
          "reference": "urn:uuid:c33f0776-6a95-11ec-0000-020000000000",
          "type": "Medication",
          "display": "OXAZEPAM ACTAVIS TABLET 10MG"
        },
        "subject": {
          "reference": "urn:uuid:c33f060e-6a95-11ec-0000-020000000000",
          "type": "Patient",
          "display": "Patient, R. van XXX_Sonnenberg"
        },
        "performer": [
          {
            "actor": {
              "reference": "urn:uuid:c33f0794-6a95-11ec-0000-020000000000",
              "type": "Organization",
              "display": "Healthcare provider (organization), Apotheek De Gulle Gaper"
            }
          }
        ],
        "authorizingPrescription": [
          {
            "type": "MedicationRequest",
            "identifier": {
              "system": "urn:oid:2.16.840.1.113883.2.4.3.11.999.77.16076005.1",
              "value": "MBH_200_QA6_MA"
            },
            "display": "relatie naar medicatieafspraak met identificatie: MBH_200_QA6_MA || 2.16.840.1.113883.2.4.3.11.999.77.16076005.1"
          }
        ],
        "dosageInstruction": [
          {
            "timing": {
              "repeat": {
                "frequency": 3,
                "period": 1,
                "periodUnit": "d"
              }
            },
            "route": {
              "coding": [
                {
                  "system": "urn:oid:2.16.840.1.113883.2.4.4.9",
                  "code": "9",
                  "display": "oraal"
                }
              ]
            },
            "doseAndRate": [
              {
                "doseQuantity": {
                  "extension": [
                    {
                      "url": "http://hl7.org/fhir/StructureDefinition/iso21090-PQ-translation",
                      "valueQuantity": {
                        "value": 1,
                        "unit": "stuk",
                        "system": "urn:oid:2.16.840.1.113883.2.4.4.1.900.2",
                        "code": "245"
                      }
                    }
                  ],
                  "value": 1,
                  "unit": "stuk",
                  "system": "http://unitsofmeasure.org",
                  "code": "1"
                }
              }
            ]
          }
        ]
      },
      "request": {
        "method": "POST",
        "url": "MedicationDispense"
      }
    },
    {
      "fullUrl": "urn:uuid:c33f060e-6a95-11ec-0000-020000000000",
      "resource": {
        "resourceType": "Patient",
        "meta": {
          "profile": [
            "http://nictiz.nl/fhir/StructureDefinition/nl-core-Patient"
          ]
        },
        "identifier": [
          {
            "system": "http://fhir.nl/fhir/NamingSystem/bsn",
            "value": "999901084"
          }
        ],
        "name": [
          {
            "extension": [
              {
                "url": "http://hl7.org/fhir/StructureDefinition/humanname-assembly-order",
                "valueCode": "NL1"
              }
            ],
            "use": "official",
            "text": "R. van XXX_Sonnenberg",
            "family": "van XXX_Sonnenberg",
            "_family": {
              "extension": [
                {
                  "url": "http://hl7.org/fhir/StructureDefinition/humanname-own-prefix",
                  "valueString": "van"
                },
                {
                  "url": "http://hl7.org/fhir/StructureDefinition/humanname-own-name",
                  "valueString": "XXX_Sonnenberg"
                }
              ]
            },
            "given": [
              "R."
            ],
            "_given": [
              {
                "extension": [
                  {
                    "url": "http://hl7.org/fhir/StructureDefinition/iso21090-EN-qualifier",
                    "valueCode": "IN"
                  }
                ]
              }
            ]
          }
        ],
        "gender": "male",
        "_gender": {
          "extension": [
            {
              "url": "http://nictiz.nl/fhir/StructureDefinition/ext-CodeSpecification",
              "valueCodeableConcept": {
                "coding": [
                  {
                    "system": "http://terminology.hl7.org/CodeSystem/v3-AdministrativeGender",
                    "code": "M",
                    "display": "Man"
                  }
                ]
              }
            }
          ]
        },
        "birthDate": "1985-11-20"
      },
      "request": {
        "method": "POST",
        "url": "Patient"
      }
    },
    {
      "fullUrl": "urn:uuid:c33f0794-6a95-11ec-0000-020000000000",
      "resource": {
        "resourceType": "Organization",
        "meta": {
          "profile": [
            "http://nictiz.nl/fhir/StructureDefinition/nl-core-HealthcareProvider-Organization"
          ]
        },
        "identifier": [
          {
            "system": "http://fhir.nl/fhir/NamingSystem/ura",
            "value": "01236578"
          }
        ],
        "name": "Apotheek De Gulle Gaper"
      },
      "request": {
        "method": "POST",
        "url": "Organization"
      }
    },
    {
      "fullUrl": "urn:uuid:c33f06e0-6a95-11ec-0000-020000000000",
      "resource": {
        "resourceType": "Medication",
        "meta": {
          "profile": [
            "http://nictiz.nl/fhir/StructureDefinition/nl-core-PharmaceuticalProduct"
          ]
        },
        "code": {
          "coding": [
            {
              "system": "urn:oid:2.16.840.1.113883.2.4.4.7",
              "code": "641898",
              "display": "IBUPROFEN PCH TABLET 600MG",
              "userSelected": true
            },
            {
              "system": "urn:oid:2.16.840.1.113883.2.4.4.10",
              "code": "17469",
              "display": "IBUPROFEN TABLET 600MG"
            },
            {
              "system": "urn:oid:2.16.840.1.113883.2.4.4.1",
              "code": "42080",
              "display": "IBUPROFEN TABLET 600MG"
            }
          ],
          "text": "IBUPROFEN PCH TABLET 600MG"
        }
      },
      "request": {
        "method": "POST",
        "url": "Medication"
      }
    },
    {
      "fullUrl": "urn:uuid:c33f06fe-6a95-11ec-0000-020000000000",
      "resource": {
        "resourceType": "Medication",
        "meta": {
          "profile": [
            "http://nictiz.nl/fhir/StructureDefinition/nl-core-PharmaceuticalProduct"
          ]
        },
        "code": {
          "coding": [
            {
              "system": "urn:oid:2.16.840.1.113883.2.4.4.7",
              "code": "101079",
              "display": "XPRAEP SIROOP 2MG/ML",
              "userSelected": true
            },
            {
              "system": "urn:oid:2.16.840.1.113883.2.4.4.10",
              "code": "3379",
              "display": "SENNOSIDEN A+B 2MG/ML"
            },
            {
              "system": "urn:oid:2.16.840.1.113883.2.4.4.1",
              "code": "10960",
              "display": "SENNOSIDEN A+B 2MG/ML"
            }
          ],
          "text": "XPRAEP SIROOP 2MG/ML"
        }
      },
      "request": {
        "method": "POST",
        "url": "Medication"
      }
    },
    {
      "fullUrl": "urn:uuid:c33f071c-6a95-11ec-0000-020000000000",
      "resource": {
        "resourceType": "Medication",
        "meta": {
          "profile": [
            "http://nictiz.nl/fhir/StructureDefinition/nl-core-PharmaceuticalProduct"
          ]
        },
        "code": {
          "coding": [
            {
              "system": "urn:oid:2.16.840.1.113883.2.4.4.7",
              "code": "690090",
              "display": "NUTRIDRINK BANAANSMAAK",
              "userSelected": true
            },
            {
              "system": "urn:oid:2.16.840.1.113883.2.4.4.10",
              "code": "88749",
              "display": "VLOEIBARE VOEDING MET O.A. VITAMINE K"
            },
            {
              "system": "urn:oid:2.16.840.1.113883.2.4.4.1",
              "code": "130575",
              "display": "VLOEIBARE VOEDING MET O.A. VITAMINE K"
            }
          ],
          "text": "NUTRIDRINK BANAANSMAAK"
        }
      },
      "request": {
        "method": "POST",
        "url": "Medication"
      }
    },
    {
      "fullUrl": "urn:uuid:c33f073a-6a95-11ec-0000-020000000000",
      "resource": {
        "resourceType": "Medication",
        "meta": {
          "profile": [
            "http://nictiz.nl/fhir/StructureDefinition/nl-core-PharmaceuticalProduct"
          ]
        },
        "code": {
          "coding": [
            {
              "system": "urn:oid:2.16.840.1.113883.2.4.4.7",
              "code": "202681",
              "display": "ASPIRINE TABLET 100MG",
              "userSelected": true
            },
            {
              "system": "urn:oid:2.16.840.1.113883.2.4.4.10",
              "code": "3956",
              "display": "ACETYLSALICYLZUUR TABLET 100MG"
            },
            {
              "system": "urn:oid:2.16.840.1.113883.2.4.4.1",
              "code": "12548",
              "display": "ACETYLSALICYLZUUR TABLET 100MG"
            }
          ],
          "text": "ASPIRINE TABLET 100MG"
        }
      },
      "request": {
        "method": "POST",
        "url": "Medication"
      }
    },
    {
      "fullUrl": "urn:uuid:c33f0758-6a95-11ec-0000-020000000000",
      "resource": {
        "resourceType": "Medication",
        "meta": {
          "profile": [
            "http://nictiz.nl/fhir/StructureDefinition/nl-core-PharmaceuticalProduct"
          ]
        },
        "code": {
          "coding": [
            {
              "system": "urn:oid:2.16.840.1.113883.2.4.4.7",
              "code": "665800",
              "display": "PARACETAMOL SANDOZ TABLET 500MG",
              "userSelected": true
            },
            {
              "system": "urn:oid:2.16.840.1.113883.2.4.4.10",
              "code": "67903",
              "display": "PARACETAMOL 500MG TABLET"
            },
            {
              "system": "urn:oid:2.16.840.1.113883.2.4.4.1",
              "code": "2194",
              "display": "PARACETAMOL 500MG TABLET"
            }
          ],
          "text": "PARACETAMOL SANDOZ TABLET 500MG"
        }
      },
      "request": {
        "method": "POST",
        "url": "Medication"
      }
    },
    {
      "fullUrl": "urn:uuid:c33f0776-6a95-11ec-0000-020000000000",
      "resource": {
        "resourceType": "Medication",
        "meta": {
          "profile": [
            "http://nictiz.nl/fhir/StructureDefinition/nl-core-PharmaceuticalProduct"
          ]
        },
        "code": {
          "coding": [
            {
              "system": "urn:oid:2.16.840.1.113883.2.4.4.7",
              "code": "613401",
              "display": "OXAZEPAM ACTAVIS TABLET 10MG",
              "userSelected": true
            },
            {
              "system": "urn:oid:2.16.840.1.113883.2.4.4.10",
              "code": "353",
              "display": "OXAZEPAM TABLET 10MG"
            },
            {
              "system": "urn:oid:2.16.840.1.113883.2.4.4.1",
              "code": "1023",
              "display": "OXAZEPAM TABLET 10MG"
            }
          ],
          "text": "OXAZEPAM ACTAVIS TABLET 10MG"
        }
      },
      "request": {
        "method": "POST",
        "url": "Medication"
      }
    }
  ]
}