{
  "resourceType": "Bundle",
  "id": "mg-mp-mg-tst-MVE-Scenarioset10-v20",
  "type": "transaction",
  "entry": [
    {
      "fullUrl": "urn:uuid:c33f1838-6a95-11ec-0000-020000000000",
      "resource": {
        "resourceType": "MedicationDispense",
        "meta": {
          "profile": [
            "http://nictiz.nl/fhir/StructureDefinition/mp-MedicationDispense"
          ]
        },
        "extension": [
          {
            "url": "http://nictiz.nl/fhir/StructureDefinition/ext-PharmaceuticalTreatment.Identifier",
            "valueIdentifier": {
              "system": "urn:oid:2.16.840.1.113883.2.4.3.11.999.77.1.1",
              "value": "MBH_200_ZINRvoorschrijven"
            }
          }
        ],
        "identifier": [
          {
            "system": "urn:oid:2.16.840.1.113883.2.4.3.11.999.77.373784005.1",
            "value": "MBH_200_ZINRvoorschrijven_MVE"
          }
        ],
        "status": "completed",
        "category": {
          "coding": [
            {
              "system": "http://snomed.info/sct",
              "code": "373784005",
              "display": "verstrekken van medicatie"
            }
          ]
        },
        "medicationReference": {
          "reference": "urn:uuid:c33f1856-6a95-11ec-0000-020000000000",
          "type": "Medication",
          "display": "INDAPAMIDE PCH TABET OMHULD 2,5MG"
        },
        "subject": {
          "reference": "urn:uuid:c33f181a-6a95-11ec-0000-020000000000",
          "type": "Patient",
          "display": "Patient, J. XXX_Bree"
        },
        "performer": [
          {
            "actor": {
              "reference": "urn:uuid:c33f1874-6a95-11ec-0000-020000000000",
              "type": "Organization",
              "display": "Healthcare provider (organization), Apotheek De Gulle Gaper"
            }
          }
        ],
        "authorizingPrescription": [
          {
            "type": "MedicationRequest",
            "identifier": {
              "system": "urn:oid:2.16.840.1.113883.2.4.3.11.999.77.52711000146108.1",
              "value": "MBH_200_ZINRvoorschrijven_VV"
            },
            "display": "relatie naar verstrekkingsverzoek met identificatie: MBH_200_ZINRvoorschrijven_VV || 2.16.840.1.113883.2.4.3.11.999.77.52711000146108.1"
          }
        ],
        "quantity": {
          "extension": [
            {
              "url": "http://hl7.org/fhir/StructureDefinition/iso21090-PQ-translation",
              "valueQuantity": {
                "value": 150,
                "unit": "stuk",
                "system": "urn:oid:2.16.840.1.113883.2.4.4.1.900.2",
                "code": "245"
              }
            }
          ],
          "value": 150,
          "unit": "stuk",
          "system": "http://unitsofmeasure.org",
          "code": "1"
        },
        "whenHandedOver": "${DATE, T, D, +0}T14:05:00+02:00"
      },
      "request": {
        "method": "POST",
        "url": "MedicationDispense"
      }
    },
    {
      "fullUrl": "urn:uuid:c33f181a-6a95-11ec-0000-020000000000",
      "resource": {
        "resourceType": "Patient",
        "meta": {
          "profile": [
            "http://nictiz.nl/fhir/StructureDefinition/nl-core-Patient"
          ]
        },
        "identifier": [
          {
            "system": "http://fhir.nl/fhir/NamingSystem/bsn",
            "value": "999901588"
          }
        ],
        "name": [
          {
            "extension": [
              {
                "url": "http://hl7.org/fhir/StructureDefinition/humanname-assembly-order",
                "valueCode": "NL1"
              }
            ],
            "use": "official",
            "text": "J. XXX_Bree",
            "family": "XXX_Bree",
            "_family": {
              "extension": [
                {
                  "url": "http://hl7.org/fhir/StructureDefinition/humanname-own-name",
                  "valueString": "XXX_Bree"
                }
              ]
            },
            "given": [
              "J."
            ],
            "_given": [
              {
                "extension": [
                  {
                    "url": "http://hl7.org/fhir/StructureDefinition/iso21090-EN-qualifier",
                    "valueCode": "IN"
                  }
                ]
              }
            ]
          }
        ],
        "gender": "male",
        "_gender": {
          "extension": [
            {
              "url": "http://nictiz.nl/fhir/StructureDefinition/ext-CodeSpecification",
              "valueCodeableConcept": {
                "coding": [
                  {
                    "system": "http://terminology.hl7.org/CodeSystem/v3-AdministrativeGender",
                    "code": "M",
                    "display": "Man"
                  }
                ]
              }
            }
          ]
        },
        "birthDate": "2010-07-01"
      },
      "request": {
        "method": "POST",
        "url": "Patient"
      }
    },
    {
      "fullUrl": "urn:uuid:c33f1874-6a95-11ec-0000-020000000000",
      "resource": {
        "resourceType": "Organization",
        "meta": {
          "profile": [
            "http://nictiz.nl/fhir/StructureDefinition/nl-core-HealthcareProvider-Organization"
          ]
        },
        "identifier": [
          {
            "system": "http://fhir.nl/fhir/NamingSystem/ura",
            "value": "01236578"
          }
        ],
        "name": "Apotheek De Gulle Gaper"
      },
      "request": {
        "method": "POST",
        "url": "Organization"
      }
    },
    {
      "fullUrl": "urn:uuid:c33f1856-6a95-11ec-0000-020000000000",
      "resource": {
        "resourceType": "Medication",
        "meta": {
          "profile": [
            "http://nictiz.nl/fhir/StructureDefinition/nl-core-PharmaceuticalProduct"
          ]
        },
        "code": {
          "coding": [
            {
              "system": "urn:oid:2.16.840.1.113883.2.4.4.8",
              "code": "13627163",
              "display": "INDAPAMIDE PCH TABET OMHULD 2,5MG",
              "userSelected": true
            },
            {
              "system": "urn:oid:2.16.840.1.113883.2.4.4.7",
              "code": "695734",
              "display": "INDAPAMIDE PCH TABET OMHULD 2,5MG"
            },
            {
              "system": "urn:oid:2.16.840.1.113883.2.4.4.10",
              "code": "2941",
              "display": "INDAPAMIDE 2,5MG TABLET"
            },
            {
              "system": "urn:oid:2.16.840.1.113883.2.4.4.1",
              "code": "83593",
              "display": "INDAPAMIDE 2,5MG TABLET"
            }
          ],
          "text": "INDAPAMIDE PCH TABET OMHULD 2,5MG"
        }
      },
      "request": {
        "method": "POST",
        "url": "Medication"
      }
    }
  ]
}