{
  "resourceType": "Bundle",
  "id": "mg-mp-mg-tst-MA-Scenarioset3-v20",
  "type": "transaction",
  "entry": [
    {
      "fullUrl": "urn:uuid:c33f1d88-6a95-11ec-0000-020000000000",
      "resource": {
        "resourceType": "MedicationRequest",
        "meta": {
          "profile": [
            "http://nictiz.nl/fhir/StructureDefinition/mp-MedicationAgreement"
          ]
        },
        "extension": [
          {
            "url": "http://nictiz.nl/fhir/StructureDefinition/ext-RenderedDosageInstruction",
            "valueString": "Vanaf T - 60 dagen, tot en met T + 220 dagen, 1 maal per dag 1 stuk, Oraal"
          },
          {
            "url": "http://nictiz.nl/fhir/StructureDefinition/ext-TimeInterval.Period",
            "valuePeriod": {
              "start": "${DATE, T, D, -60}T00:00:00+02:00",
              "end": "${DATE, T, D, +220}T23:59:59+02:00"
            }
          },
          {
            "url": "http://nictiz.nl/fhir/StructureDefinition/ext-PharmaceuticalTreatment.Identifier",
            "valueIdentifier": {
              "system": "urn:oid:2.16.840.1.113883.2.4.3.11.999.77.1.1",
              "value": "MBH_200_stoppen"
            }
          }
        ],
        "identifier": [
          {
            "system": "urn:oid:2.16.840.1.113883.2.4.3.11.999.77.16076005.1",
            "value": "MBH_200_stoppen_MA_start"
          }
        ],
        "status": "unknown",
        "intent": "order",
        "category": [
          {
            "coding": [
              {
                "system": "http://snomed.info/sct",
                "code": "33633005",
                "display": "voorschrijven van geneesmiddel"
              }
            ]
          }
        ],
        "medicationReference": {
          "reference": "urn:uuid:c33f1ed2-6a95-11ec-0000-020000000000",
          "type": "Medication",
          "display": "Acetylsalicylzuur tabletmsr 100mg"
        },
        "subject": {
          "reference": "urn:uuid:c33f1d2e-6a95-11ec-0000-020000000000",
          "type": "Patient",
          "display": "Patient, C. XXX_Dongen"
        },
        "authoredOn": "${DATE, T, D, -60}T08:00:00+02:00",
        "requester": {
          "reference": "urn:uuid:c33f1d4c-6a95-11ec-0000-020000000000",
          "type": "PractitionerRole",
          "display": "Healthcare professional (role), Bertine van Doorn, Huisartsen, niet nader gespecificeerd"
        },
        "dosageInstruction": [
          {
            "timing": {
              "repeat": {
                "frequency": 1,
                "period": 1,
                "periodUnit": "d"
              }
            },
            "route": {
              "coding": [
                {
                  "system": "urn:oid:2.16.840.1.113883.2.4.4.9",
                  "code": "9",
                  "display": "Oraal"
                }
              ]
            },
            "doseAndRate": [
              {
                "doseQuantity": {
                  "extension": [
                    {
                      "url": "http://hl7.org/fhir/StructureDefinition/iso21090-PQ-translation",
                      "valueQuantity": {
                        "value": 1,
                        "unit": "stuk",
                        "system": "urn:oid:2.16.840.1.113883.2.4.4.1.900.2",
                        "code": "245"
                      }
                    }
                  ],
                  "value": 1,
                  "unit": "stuk",
                  "system": "http://unitsofmeasure.org",
                  "code": "1"
                }
              }
            ]
          }
        ]
      },
      "request": {
        "method": "POST",
        "url": "MedicationRequest"
      }
    },
    {
      "fullUrl": "urn:uuid:c33f1da6-6a95-11ec-0000-020000000000",
      "resource": {
        "resourceType": "MedicationRequest",
        "meta": {
          "profile": [
            "http://nictiz.nl/fhir/StructureDefinition/mp-MedicationAgreement"
          ]
        },
        "extension": [
          {
            "url": "http://nictiz.nl/fhir/StructureDefinition/ext-RenderedDosageInstruction",
            "valueString": "Vanaf T - 60 dagen, tot en met T, 1 maal per dag 1 stuk, Oraal, definitief gestopt"
          },
          {
            "url": "http://nictiz.nl/fhir/StructureDefinition/ext-TimeInterval.Period",
            "valuePeriod": {
              "start": "${DATE, T, D, -60}T00:00:00+02:00",
              "end": "${DATE, T, D, -0}T23:59:59+02:00"
            }
          },
          {
            "url": "http://nictiz.nl/fhir/StructureDefinition/ext-PharmaceuticalTreatment.Identifier",
            "valueIdentifier": {
              "system": "urn:oid:2.16.840.1.113883.2.4.3.11.999.77.1.1",
              "value": "MBH_200_stoppen"
            }
          }
        ],
        "modifierExtension": [
          {
            "url": "http://nictiz.nl/fhir/StructureDefinition/ext-StopType",
            "valueCodeableConcept": {
              "coding": [
                {
                  "system": "http://snomed.info/sct",
                  "code": "113371000146109",
                  "display": "definitief gestopt met medicatie"
                }
              ]
            }
          }
        ],
        "identifier": [
          {
            "system": "urn:oid:2.16.840.1.113883.2.4.3.11.999.77.16076005.1",
            "value": "MBH_200_stoppen_MA_staken"
          }
        ],
        "status": "unknown",
        "intent": "order",
        "category": [
          {
            "coding": [
              {
                "system": "http://snomed.info/sct",
                "code": "33633005",
                "display": "voorschrijven van geneesmiddel"
              }
            ]
          }
        ],
        "medicationReference": {
          "reference": "urn:uuid:c33f1ed2-6a95-11ec-0000-020000000000",
          "type": "Medication",
          "display": "Acetylsalicylzuur tabletmsr 100mg"
        },
        "subject": {
          "reference": "urn:uuid:c33f1d2e-6a95-11ec-0000-020000000000",
          "type": "Patient",
          "display": "Patient, C. XXX_Dongen"
        },
        "authoredOn": "${DATE, T, D, -10}T18:00:00+02:00",
        "requester": {
          "reference": "urn:uuid:c33f1d4c-6a95-11ec-0000-020000000000",
          "type": "PractitionerRole",
          "display": "Healthcare professional (role), Bertine van Doorn, Huisartsen, niet nader gespecificeerd"
        },
        "reasonCode": [
          {
            "coding": [
              {
                "system": "http://snomed.info/sct",
                "code": "79899007",
                "display": "geneesmiddelinteractie"
              }
            ]
          }
        ],
        "dosageInstruction": [
          {
            "timing": {
              "repeat": {
                "frequency": 1,
                "period": 1,
                "periodUnit": "d"
              }
            },
            "route": {
              "coding": [
                {
                  "system": "urn:oid:2.16.840.1.113883.2.4.4.9",
                  "code": "9",
                  "display": "Oraal"
                }
              ]
            },
            "doseAndRate": [
              {
                "doseQuantity": {
                  "extension": [
                    {
                      "url": "http://hl7.org/fhir/StructureDefinition/iso21090-PQ-translation",
                      "valueQuantity": {
                        "value": 1,
                        "unit": "stuk",
                        "system": "urn:oid:2.16.840.1.113883.2.4.4.1.900.2",
                        "code": "245"
                      }
                    }
                  ],
                  "value": 1,
                  "unit": "stuk",
                  "system": "http://unitsofmeasure.org",
                  "code": "1"
                }
              }
            ]
          }
        ],
        "priorPrescription": {
          "type": "MedicationRequest",
          "identifier": {
            "system": "urn:oid:2.16.840.1.113883.2.4.3.11.999.77.16076005.1",
            "value": "MBH_200_stoppen_MA_start"
          },
          "display": "relatie naar medicatieafspraak: MBH_200_stoppen_MA_start || 2.16.840.1.113883.2.4.3.11.999.77.16076005.1"
        }
      },
      "request": {
        "method": "POST",
        "url": "MedicationRequest"
      }
    },
    {
      "fullUrl": "urn:uuid:c33f1dc4-6a95-11ec-0000-020000000000",
      "resource": {
        "resourceType": "MedicationRequest",
        "meta": {
          "profile": [
            "http://nictiz.nl/fhir/StructureDefinition/mp-MedicationAgreement"
          ]
        },
        "extension": [
          {
            "url": "http://nictiz.nl/fhir/StructureDefinition/ext-RenderedDosageInstruction",
            "valueString": "Vanaf T - 21 dagen, 1 maal per dag 1 stuk, Oraal"
          },
          {
            "url": "http://nictiz.nl/fhir/StructureDefinition/ext-TimeInterval.Period",
            "valuePeriod": {
              "start": "${DATE, T, D, -21}T00:00:00+02:00"
            }
          },
          {
            "url": "http://nictiz.nl/fhir/StructureDefinition/ext-PharmaceuticalTreatment.Identifier",
            "valueIdentifier": {
              "system": "urn:oid:2.16.840.1.113883.2.4.3.11.999.77.1.1",
              "value": "MBH_200_wijzigen_verhoging"
            }
          }
        ],
        "identifier": [
          {
            "system": "urn:oid:2.16.840.1.113883.2.4.3.11.999.77.16076005.1",
            "value": "MBH_200_wijzigen_verhoging_MA_start"
          }
        ],
        "status": "unknown",
        "intent": "order",
        "category": [
          {
            "coding": [
              {
                "system": "http://snomed.info/sct",
                "code": "33633005",
                "display": "voorschrijven van geneesmiddel"
              }
            ]
          }
        ],
        "medicationReference": {
          "reference": "urn:uuid:c33f1ef0-6a95-11ec-0000-020000000000",
          "type": "Medication",
          "display": "FUROSEMIDE 40MG TABLET"
        },
        "subject": {
          "reference": "urn:uuid:c33f1d2e-6a95-11ec-0000-020000000000",
          "type": "Patient",
          "display": "Patient, C. XXX_Dongen"
        },
        "authoredOn": "${DATE, T, D, -21}T08:02:00+02:00",
        "requester": {
          "reference": "urn:uuid:c33f1d4c-6a95-11ec-0000-020000000000",
          "type": "PractitionerRole",
          "display": "Healthcare professional (role), Bertine van Doorn, Huisartsen, niet nader gespecificeerd"
        },
        "dosageInstruction": [
          {
            "timing": {
              "repeat": {
                "frequency": 1,
                "period": 1,
                "periodUnit": "d"
              }
            },
            "route": {
              "coding": [
                {
                  "system": "urn:oid:2.16.840.1.113883.2.4.4.9",
                  "code": "9",
                  "display": "Oraal"
                }
              ]
            },
            "doseAndRate": [
              {
                "doseQuantity": {
                  "extension": [
                    {
                      "url": "http://hl7.org/fhir/StructureDefinition/iso21090-PQ-translation",
                      "valueQuantity": {
                        "value": 1,
                        "unit": "stuk",
                        "system": "urn:oid:2.16.840.1.113883.2.4.4.1.900.2",
                        "code": "245"
                      }
                    }
                  ],
                  "value": 1,
                  "unit": "stuk",
                  "system": "http://unitsofmeasure.org",
                  "code": "1"
                }
              }
            ]
          }
        ]
      },
      "request": {
        "method": "POST",
        "url": "MedicationRequest"
      }
    },
    {
      "fullUrl": "urn:uuid:c33f1de2-6a95-11ec-0000-020000000000",
      "resource": {
        "resourceType": "MedicationRequest",
        "meta": {
          "profile": [
            "http://nictiz.nl/fhir/StructureDefinition/mp-MedicationAgreement"
          ]
        },
        "extension": [
          {
            "url": "http://nictiz.nl/fhir/StructureDefinition/ext-RenderedDosageInstruction",
            "valueString": "Vanaf T - 2 dagen, 1 maal per dag 2 stuks, Oraal"
          },
          {
            "url": "http://nictiz.nl/fhir/StructureDefinition/ext-TimeInterval.Period",
            "valuePeriod": {
              "start": "${DATE, T, D, -2}T00:00:00+02:00"
            }
          },
          {
            "url": "http://nictiz.nl/fhir/StructureDefinition/ext-PharmaceuticalTreatment.Identifier",
            "valueIdentifier": {
              "system": "urn:oid:2.16.840.1.113883.2.4.3.11.999.77.1.1",
              "value": "MBH_200_wijzigen_verhoging"
            }
          }
        ],
        "identifier": [
          {
            "system": "urn:oid:2.16.840.1.113883.2.4.3.11.999.77.16076005.1",
            "value": "MBH_200_wijzigen_verhoging_MA_wijzigingmetVV"
          }
        ],
        "status": "unknown",
        "intent": "order",
        "category": [
          {
            "coding": [
              {
                "system": "http://snomed.info/sct",
                "code": "33633005",
                "display": "voorschrijven van geneesmiddel"
              }
            ]
          }
        ],
        "medicationReference": {
          "reference": "urn:uuid:c33f1ef0-6a95-11ec-0000-020000000000",
          "type": "Medication",
          "display": "FUROSEMIDE 40MG TABLET"
        },
        "subject": {
          "reference": "urn:uuid:c33f1d2e-6a95-11ec-0000-020000000000",
          "type": "Patient",
          "display": "Patient, C. XXX_Dongen"
        },
        "authoredOn": "${DATE, T, D, -2}T08:02:00+02:00",
        "requester": {
          "reference": "urn:uuid:c33f1d4c-6a95-11ec-0000-020000000000",
          "type": "PractitionerRole",
          "display": "Healthcare professional (role), Bertine van Doorn, Huisartsen, niet nader gespecificeerd"
        },
        "reasonCode": [
          {
            "coding": [
              {
                "system": "http://snomed.info/sct",
                "code": "58848006",
                "display": "gebrek aan geneesmiddeleffect"
              }
            ]
          }
        ],
        "dosageInstruction": [
          {
            "timing": {
              "repeat": {
                "frequency": 1,
                "period": 1,
                "periodUnit": "d"
              }
            },
            "route": {
              "coding": [
                {
                  "system": "urn:oid:2.16.840.1.113883.2.4.4.9",
                  "code": "9",
                  "display": "Oraal"
                }
              ]
            },
            "doseAndRate": [
              {
                "doseQuantity": {
                  "extension": [
                    {
                      "url": "http://hl7.org/fhir/StructureDefinition/iso21090-PQ-translation",
                      "valueQuantity": {
                        "value": 2,
                        "unit": "stuk",
                        "system": "urn:oid:2.16.840.1.113883.2.4.4.1.900.2",
                        "code": "245"
                      }
                    }
                  ],
                  "value": 2,
                  "unit": "stuk",
                  "system": "http://unitsofmeasure.org",
                  "code": "1"
                }
              }
            ]
          }
        ],
        "priorPrescription": {
          "type": "MedicationRequest",
          "identifier": {
            "system": "urn:oid:2.16.840.1.113883.2.4.3.11.999.77.16076005.1",
            "value": "MBH_200_wijzigen_verhoging_MA_start"
          },
          "display": "relatie naar medicatieafspraak: MBH_200_wijzigen_verhoging_MA_start || 2.16.840.1.113883.2.4.3.11.999.77.16076005.1"
        }
      },
      "request": {
        "method": "POST",
        "url": "MedicationRequest"
      }
    },
    {
      "fullUrl": "urn:uuid:c33f1e00-6a95-11ec-0000-020000000000",
      "resource": {
        "resourceType": "MedicationRequest",
        "meta": {
          "profile": [
            "http://nictiz.nl/fhir/StructureDefinition/mp-MedicationAgreement"
          ]
        },
        "extension": [
          {
            "url": "http://nictiz.nl/fhir/StructureDefinition/ext-RenderedDosageInstruction",
            "valueString": "Vanaf T - 21 dagen, tot en met T - 3 dagen, 1 maal per dag 1 stuk, Oraal, definitief gestopt"
          },
          {
            "url": "http://nictiz.nl/fhir/StructureDefinition/ext-TimeInterval.Period",
            "valuePeriod": {
              "start": "${DATE, T, D, -21}T00:00:00+02:00",
              "end": "${DATE, T, D, -3}T23:59:59+02:00"
            }
          },
          {
            "url": "http://nictiz.nl/fhir/StructureDefinition/ext-PharmaceuticalTreatment.Identifier",
            "valueIdentifier": {
              "system": "urn:oid:2.16.840.1.113883.2.4.3.11.999.77.1.1",
              "value": "MBH_200_wijzigen_verhoging"
            }
          }
        ],
        "modifierExtension": [
          {
            "url": "http://nictiz.nl/fhir/StructureDefinition/ext-StopType",
            "valueCodeableConcept": {
              "coding": [
                {
                  "system": "http://snomed.info/sct",
                  "code": "113371000146109",
                  "display": "definitief gestopt met medicatie"
                }
              ]
            }
          }
        ],
        "identifier": [
          {
            "system": "urn:oid:2.16.840.1.113883.2.4.3.11.999.77.16076005.1",
            "value": "MBH_200_wijzigen_verhoging_MA_techstaken"
          }
        ],
        "status": "unknown",
        "intent": "order",
        "category": [
          {
            "coding": [
              {
                "system": "http://snomed.info/sct",
                "code": "33633005",
                "display": "voorschrijven van geneesmiddel"
              }
            ]
          }
        ],
        "medicationReference": {
          "reference": "urn:uuid:c33f1ef0-6a95-11ec-0000-020000000000",
          "type": "Medication",
          "display": "FUROSEMIDE 40MG TABLET"
        },
        "subject": {
          "reference": "urn:uuid:c33f1d2e-6a95-11ec-0000-020000000000",
          "type": "Patient",
          "display": "Patient, C. XXX_Dongen"
        },
        "authoredOn": "${DATE, T, D, -2}T08:02:00+02:00",
        "requester": {
          "reference": "urn:uuid:c33f1d4c-6a95-11ec-0000-020000000000",
          "type": "PractitionerRole",
          "display": "Healthcare professional (role), Bertine van Doorn, Huisartsen, niet nader gespecificeerd"
        },
        "dosageInstruction": [
          {
            "timing": {
              "repeat": {
                "frequency": 1,
                "period": 1,
                "periodUnit": "d"
              }
            },
            "route": {
              "coding": [
                {
                  "system": "urn:oid:2.16.840.1.113883.2.4.4.9",
                  "code": "9",
                  "display": "Oraal"
                }
              ]
            },
            "doseAndRate": [
              {
                "doseQuantity": {
                  "extension": [
                    {
                      "url": "http://hl7.org/fhir/StructureDefinition/iso21090-PQ-translation",
                      "valueQuantity": {
                        "value": 1,
                        "unit": "stuk",
                        "system": "urn:oid:2.16.840.1.113883.2.4.4.1.900.2",
                        "code": "245"
                      }
                    }
                  ],
                  "value": 1,
                  "unit": "stuk",
                  "system": "http://unitsofmeasure.org",
                  "code": "1"
                }
              }
            ]
          }
        ],
        "priorPrescription": {
          "type": "MedicationRequest",
          "identifier": {
            "system": "urn:oid:2.16.840.1.113883.2.4.3.11.999.77.16076005.1",
            "value": "MBH_200_wijzigen_verhoging_MA_start"
          },
          "display": "relatie naar medicatieafspraak: MBH_200_wijzigen_verhoging_MA_start || 2.16.840.1.113883.2.4.3.11.999.77.16076005.1"
        }
      },
      "request": {
        "method": "POST",
        "url": "MedicationRequest"
      }
    },
    {
      "fullUrl": "urn:uuid:c33f1e1e-6a95-11ec-0000-020000000000",
      "resource": {
        "resourceType": "MedicationRequest",
        "meta": {
          "profile": [
            "http://nictiz.nl/fhir/StructureDefinition/mp-MedicationAgreement"
          ]
        },
        "extension": [
          {
            "url": "http://nictiz.nl/fhir/StructureDefinition/ext-RenderedDosageInstruction",
            "valueString": "Vanaf T - 13 dagen, tot en met T + 14 dagen, 2 maal per week 1 stuk, Oraal"
          },
          {
            "url": "http://nictiz.nl/fhir/StructureDefinition/ext-TimeInterval.Period",
            "valuePeriod": {
              "start": "${DATE, T, D, -13}T00:00:00+02:00",
              "end": "${DATE, T, D, +14}T23:59:59+02:00"
            }
          },
          {
            "url": "http://nictiz.nl/fhir/StructureDefinition/ext-PharmaceuticalTreatment.Identifier",
            "valueIdentifier": {
              "system": "urn:oid:2.16.840.1.113883.2.4.3.11.999.77.1.1",
              "value": "MBH_200_wijzigen_verlaging"
            }
          }
        ],
        "identifier": [
          {
            "system": "urn:oid:2.16.840.1.113883.2.4.3.11.999.77.16076005.1",
            "value": "MBH_200_wijzigen_verlaging_MA_start"
          }
        ],
        "status": "unknown",
        "intent": "order",
        "category": [
          {
            "coding": [
              {
                "system": "http://snomed.info/sct",
                "code": "33633005",
                "display": "voorschrijven van geneesmiddel"
              }
            ]
          }
        ],
        "medicationReference": {
          "reference": "urn:uuid:c33f1f2c-6a95-11ec-0000-020000000000",
          "type": "Medication",
          "display": "FERROFUMARAAT TABLET 200MG"
        },
        "subject": {
          "reference": "urn:uuid:c33f1d2e-6a95-11ec-0000-020000000000",
          "type": "Patient",
          "display": "Patient, C. XXX_Dongen"
        },
        "authoredOn": "${DATE, T, D, -13}T08:05:00+02:00",
        "requester": {
          "reference": "urn:uuid:c33f1d4c-6a95-11ec-0000-020000000000",
          "type": "PractitionerRole",
          "display": "Healthcare professional (role), Bertine van Doorn, Huisartsen, niet nader gespecificeerd"
        },
        "dosageInstruction": [
          {
            "timing": {
              "repeat": {
                "frequency": 2,
                "period": 1,
                "periodUnit": "wk"
              }
            },
            "route": {
              "coding": [
                {
                  "system": "urn:oid:2.16.840.1.113883.2.4.4.9",
                  "code": "9",
                  "display": "Oraal"
                }
              ]
            },
            "doseAndRate": [
              {
                "doseQuantity": {
                  "extension": [
                    {
                      "url": "http://hl7.org/fhir/StructureDefinition/iso21090-PQ-translation",
                      "valueQuantity": {
                        "value": 1,
                        "unit": "stuk",
                        "system": "urn:oid:2.16.840.1.113883.2.4.4.1.900.2",
                        "code": "245"
                      }
                    }
                  ],
                  "value": 1,
                  "unit": "stuk",
                  "system": "http://unitsofmeasure.org",
                  "code": "1"
                }
              }
            ]
          }
        ]
      },
      "request": {
        "method": "POST",
        "url": "MedicationRequest"
      }
    },
    {
      "fullUrl": "urn:uuid:c33f1e3c-6a95-11ec-0000-020000000000",
      "resource": {
        "resourceType": "MedicationRequest",
        "meta": {
          "profile": [
            "http://nictiz.nl/fhir/StructureDefinition/mp-MedicationAgreement"
          ]
        },
        "extension": [
          {
            "url": "http://nictiz.nl/fhir/StructureDefinition/ext-RenderedDosageInstruction",
            "valueString": "Vanaf T - 1 dag, tot en met T + 14 dagen, 1 maal per week 1 stuk, Oraal"
          },
          {
            "url": "http://nictiz.nl/fhir/StructureDefinition/ext-TimeInterval.Period",
            "valuePeriod": {
              "start": "${DATE, T, D, -1}T00:00:00+02:00",
              "end": "${DATE, T, D, +14}T23:59:59+02:00"
            }
          },
          {
            "url": "http://nictiz.nl/fhir/StructureDefinition/ext-PharmaceuticalTreatment.Identifier",
            "valueIdentifier": {
              "system": "urn:oid:2.16.840.1.113883.2.4.3.11.999.77.1.1",
              "value": "MBH_200_wijzigen_verlaging"
            }
          }
        ],
        "identifier": [
          {
            "system": "urn:oid:2.16.840.1.113883.2.4.3.11.999.77.16076005.1",
            "value": "MBH_200_wijzigen_verlaging_MA_wijzigingzonderVV"
          }
        ],
        "status": "unknown",
        "intent": "order",
        "category": [
          {
            "coding": [
              {
                "system": "http://snomed.info/sct",
                "code": "33633005",
                "display": "voorschrijven van geneesmiddel"
              }
            ]
          }
        ],
        "medicationReference": {
          "reference": "urn:uuid:c33f1f2c-6a95-11ec-0000-020000000000",
          "type": "Medication",
          "display": "FERROFUMARAAT TABLET 200MG"
        },
        "subject": {
          "reference": "urn:uuid:c33f1d2e-6a95-11ec-0000-020000000000",
          "type": "Patient",
          "display": "Patient, C. XXX_Dongen"
        },
        "authoredOn": "${DATE, T, D, -1}T08:10:00+02:00",
        "requester": {
          "reference": "urn:uuid:c33f1d4c-6a95-11ec-0000-020000000000",
          "type": "PractitionerRole",
          "display": "Healthcare professional (role), Bertine van Doorn, Huisartsen, niet nader gespecificeerd"
        },
        "reasonCode": [
          {
            "coding": [
              {
                "system": "http://snomed.info/sct",
                "code": "112251000146103",
                "display": "te sterk effect van medicatie"
              }
            ]
          }
        ],
        "dosageInstruction": [
          {
            "timing": {
              "repeat": {
                "frequency": 1,
                "period": 1,
                "periodUnit": "wk"
              }
            },
            "route": {
              "coding": [
                {
                  "system": "urn:oid:2.16.840.1.113883.2.4.4.9",
                  "code": "9",
                  "display": "Oraal"
                }
              ]
            },
            "doseAndRate": [
              {
                "doseQuantity": {
                  "extension": [
                    {
                      "url": "http://hl7.org/fhir/StructureDefinition/iso21090-PQ-translation",
                      "valueQuantity": {
                        "value": 1,
                        "unit": "stuk",
                        "system": "urn:oid:2.16.840.1.113883.2.4.4.1.900.2",
                        "code": "245"
                      }
                    }
                  ],
                  "value": 1,
                  "unit": "stuk",
                  "system": "http://unitsofmeasure.org",
                  "code": "1"
                }
              }
            ]
          }
        ],
        "priorPrescription": {
          "type": "MedicationRequest",
          "identifier": {
            "system": "urn:oid:2.16.840.1.113883.2.4.3.11.999.77.16076005.1",
            "value": "MBH_200_wijzigen_verlaging_MA_start"
          },
          "display": "relatie naar medicatieafspraak: MBH_200_wijzigen_verlaging_MA_start || 2.16.840.1.113883.2.4.3.11.999.77.16076005.1"
        }
      },
      "request": {
        "method": "POST",
        "url": "MedicationRequest"
      }
    },
    {
      "fullUrl": "urn:uuid:c33f1e5a-6a95-11ec-0000-020000000000",
      "resource": {
        "resourceType": "MedicationRequest",
        "meta": {
          "profile": [
            "http://nictiz.nl/fhir/StructureDefinition/mp-MedicationAgreement"
          ]
        },
        "extension": [
          {
            "url": "http://nictiz.nl/fhir/StructureDefinition/ext-RenderedDosageInstruction",
            "valueString": "Vanaf T - 13 dagen, tot en met T - 2 dagen, 2 maal per week 1 stuk, Oraal, definitief gestopt"
          },
          {
            "url": "http://nictiz.nl/fhir/StructureDefinition/ext-TimeInterval.Period",
            "valuePeriod": {
              "start": "${DATE, T, D, -13}T00:00:00+02:00",
              "end": "${DATE, T, D, -2}T23:59:59+02:00"
            }
          },
          {
            "url": "http://nictiz.nl/fhir/StructureDefinition/ext-PharmaceuticalTreatment.Identifier",
            "valueIdentifier": {
              "system": "urn:oid:2.16.840.1.113883.2.4.3.11.999.77.1.1",
              "value": "MBH_200_wijzigen_verlaging"
            }
          }
        ],
        "modifierExtension": [
          {
            "url": "http://nictiz.nl/fhir/StructureDefinition/ext-StopType",
            "valueCodeableConcept": {
              "coding": [
                {
                  "system": "http://snomed.info/sct",
                  "code": "113371000146109",
                  "display": "definitief gestopt met medicatie"
                }
              ]
            }
          }
        ],
        "identifier": [
          {
            "system": "urn:oid:2.16.840.1.113883.2.4.3.11.999.77.16076005.1",
            "value": "MBH_200_wijzigen_verlaging_MA_techstaken"
          }
        ],
        "status": "unknown",
        "intent": "order",
        "category": [
          {
            "coding": [
              {
                "system": "http://snomed.info/sct",
                "code": "33633005",
                "display": "voorschrijven van geneesmiddel"
              }
            ]
          }
        ],
        "medicationReference": {
          "reference": "urn:uuid:c33f1f2c-6a95-11ec-0000-020000000000",
          "type": "Medication",
          "display": "FERROFUMARAAT TABLET 200MG"
        },
        "subject": {
          "reference": "urn:uuid:c33f1d2e-6a95-11ec-0000-020000000000",
          "type": "Patient",
          "display": "Patient, C. XXX_Dongen"
        },
        "authoredOn": "${DATE, T, D, -1}T08:10:00+02:00",
        "requester": {
          "reference": "urn:uuid:c33f1d4c-6a95-11ec-0000-020000000000",
          "type": "PractitionerRole",
          "display": "Healthcare professional (role), Bertine van Doorn, Huisartsen, niet nader gespecificeerd"
        },
        "dosageInstruction": [
          {
            "timing": {
              "repeat": {
                "frequency": 2,
                "period": 1,
                "periodUnit": "wk"
              }
            },
            "route": {
              "coding": [
                {
                  "system": "urn:oid:2.16.840.1.113883.2.4.4.9",
                  "code": "9",
                  "display": "Oraal"
                }
              ]
            },
            "doseAndRate": [
              {
                "doseQuantity": {
                  "extension": [
                    {
                      "url": "http://hl7.org/fhir/StructureDefinition/iso21090-PQ-translation",
                      "valueQuantity": {
                        "value": 1,
                        "unit": "stuk",
                        "system": "urn:oid:2.16.840.1.113883.2.4.4.1.900.2",
                        "code": "245"
                      }
                    }
                  ],
                  "value": 1,
                  "unit": "stuk",
                  "system": "http://unitsofmeasure.org",
                  "code": "1"
                }
              }
            ]
          }
        ],
        "priorPrescription": {
          "type": "MedicationRequest",
          "identifier": {
            "system": "urn:oid:2.16.840.1.113883.2.4.3.11.999.77.16076005.1",
            "value": "MBH_200_wijzigen_verlaging_MA_start"
          },
          "display": "relatie naar medicatieafspraak: MBH_200_wijzigen_verlaging_MA_start || 2.16.840.1.113883.2.4.3.11.999.77.16076005.1"
        }
      },
      "request": {
        "method": "POST",
        "url": "MedicationRequest"
      }
    },
    {
      "fullUrl": "urn:uuid:c33f1e78-6a95-11ec-0000-020000000000",
      "resource": {
        "resourceType": "MedicationRequest",
        "meta": {
          "profile": [
            "http://nictiz.nl/fhir/StructureDefinition/mp-MedicationAgreement"
          ]
        },
        "extension": [
          {
            "url": "http://nictiz.nl/fhir/StructureDefinition/ext-RenderedDosageInstruction",
            "valueString": "Vanaf T - 4 dagen, tot en met T + 5 dagen, 3 maal per dag 1 stuk, Oraal"
          },
          {
            "url": "http://nictiz.nl/fhir/StructureDefinition/ext-TimeInterval.Period",
            "valuePeriod": {
              "start": "${DATE, T, D, -4}T00:00:00+02:00",
              "end": "${DATE, T, D, +5}T23:59:59+02:00"
            }
          },
          {
            "url": "http://nictiz.nl/fhir/StructureDefinition/ext-PharmaceuticalTreatment.Identifier",
            "valueIdentifier": {
              "system": "urn:oid:2.16.840.1.113883.2.4.3.11.999.77.1.1",
              "value": "MBH_200_onderbreken"
            }
          }
        ],
        "identifier": [
          {
            "system": "urn:oid:2.16.840.1.113883.2.4.3.11.999.77.16076005.1",
            "value": "MBH_200_onderbreken_MA_start"
          }
        ],
        "status": "unknown",
        "intent": "order",
        "category": [
          {
            "coding": [
              {
                "system": "http://snomed.info/sct",
                "code": "33633005",
                "display": "voorschrijven van geneesmiddel"
              }
            ]
          }
        ],
        "medicationReference": {
          "reference": "urn:uuid:c33f1f0e-6a95-11ec-0000-020000000000",
          "type": "Medication",
          "display": "FENETICILLINE CAPSULE 500MG"
        },
        "subject": {
          "reference": "urn:uuid:c33f1d2e-6a95-11ec-0000-020000000000",
          "type": "Patient",
          "display": "Patient, C. XXX_Dongen"
        },
        "authoredOn": "${DATE, T, D, -5}T08:06:00+02:00",
        "requester": {
          "reference": "urn:uuid:c33f1d4c-6a95-11ec-0000-020000000000",
          "type": "PractitionerRole",
          "display": "Healthcare professional (role), Bertine van Doorn, Huisartsen, niet nader gespecificeerd"
        },
        "dosageInstruction": [
          {
            "timing": {
              "repeat": {
                "frequency": 3,
                "period": 1,
                "periodUnit": "d"
              }
            },
            "route": {
              "coding": [
                {
                  "system": "urn:oid:2.16.840.1.113883.2.4.4.9",
                  "code": "9",
                  "display": "Oraal"
                }
              ]
            },
            "doseAndRate": [
              {
                "doseQuantity": {
                  "extension": [
                    {
                      "url": "http://hl7.org/fhir/StructureDefinition/iso21090-PQ-translation",
                      "valueQuantity": {
                        "value": 1,
                        "unit": "stuk",
                        "system": "urn:oid:2.16.840.1.113883.2.4.4.1.900.2",
                        "code": "245"
                      }
                    }
                  ],
                  "value": 1,
                  "unit": "stuk",
                  "system": "http://unitsofmeasure.org",
                  "code": "1"
                }
              }
            ]
          }
        ]
      },
      "request": {
        "method": "POST",
        "url": "MedicationRequest"
      }
    },
    {
      "fullUrl": "urn:uuid:c33f1e96-6a95-11ec-0000-020000000000",
      "resource": {
        "resourceType": "MedicationRequest",
        "meta": {
          "profile": [
            "http://nictiz.nl/fhir/StructureDefinition/mp-MedicationAgreement"
          ]
        },
        "extension": [
          {
            "url": "http://nictiz.nl/fhir/StructureDefinition/ext-RenderedDosageInstruction",
            "valueString": "Vanaf T - 4 dagen, tot en met T - 1 dag, 3 maal per dag 1 stuk, Oraal, tijdelijk gestopt"
          },
          {
            "url": "http://nictiz.nl/fhir/StructureDefinition/ext-TimeInterval.Period",
            "valuePeriod": {
              "start": "${DATE, T, D, -4}T00:00:00+02:00",
              "end": "${DATE, T, D, -1}T23:59:59+02:00"
            }
          },
          {
            "url": "http://nictiz.nl/fhir/StructureDefinition/ext-PharmaceuticalTreatment.Identifier",
            "valueIdentifier": {
              "system": "urn:oid:2.16.840.1.113883.2.4.3.11.999.77.1.1",
              "value": "MBH_200_onderbreken"
            }
          }
        ],
        "modifierExtension": [
          {
            "url": "http://nictiz.nl/fhir/StructureDefinition/ext-StopType",
            "valueCodeableConcept": {
              "coding": [
                {
                  "system": "http://snomed.info/sct",
                  "code": "113381000146106",
                  "display": "tijdelijk gestopt met medicatie"
                }
              ]
            }
          }
        ],
        "identifier": [
          {
            "system": "urn:oid:2.16.840.1.113883.2.4.3.11.999.77.16076005.1",
            "value": "MBH_200_onderbreken_MA_onderbreken"
          }
        ],
        "status": "unknown",
        "intent": "order",
        "category": [
          {
            "coding": [
              {
                "system": "http://snomed.info/sct",
                "code": "33633005",
                "display": "voorschrijven van geneesmiddel"
              }
            ]
          }
        ],
        "medicationReference": {
          "reference": "urn:uuid:c33f1f0e-6a95-11ec-0000-020000000000",
          "type": "Medication",
          "display": "FENETICILLINE CAPSULE 500MG"
        },
        "subject": {
          "reference": "urn:uuid:c33f1d2e-6a95-11ec-0000-020000000000",
          "type": "Patient",
          "display": "Patient, C. XXX_Dongen"
        },
        "authoredOn": "${DATE, T, D, -1}T18:12:00+02:00",
        "requester": {
          "reference": "urn:uuid:c33f1d4c-6a95-11ec-0000-020000000000",
          "type": "PractitionerRole",
          "display": "Healthcare professional (role), Bertine van Doorn, Huisartsen, niet nader gespecificeerd"
        },
        "reasonCode": [
          {
            "coding": [
              {
                "system": "http://snomed.info/sct",
                "code": "405613005",
                "display": "verrichting gepland"
              }
            ]
          }
        ],
        "dosageInstruction": [
          {
            "timing": {
              "repeat": {
                "frequency": 3,
                "period": 1,
                "periodUnit": "d"
              }
            },
            "route": {
              "coding": [
                {
                  "system": "urn:oid:2.16.840.1.113883.2.4.4.9",
                  "code": "9",
                  "display": "Oraal"
                }
              ]
            },
            "doseAndRate": [
              {
                "doseQuantity": {
                  "extension": [
                    {
                      "url": "http://hl7.org/fhir/StructureDefinition/iso21090-PQ-translation",
                      "valueQuantity": {
                        "value": 1,
                        "unit": "stuk",
                        "system": "urn:oid:2.16.840.1.113883.2.4.4.1.900.2",
                        "code": "245"
                      }
                    }
                  ],
                  "value": 1,
                  "unit": "stuk",
                  "system": "http://unitsofmeasure.org",
                  "code": "1"
                }
              }
            ]
          }
        ],
        "priorPrescription": {
          "type": "MedicationRequest",
          "identifier": {
            "system": "urn:oid:2.16.840.1.113883.2.4.3.11.999.77.16076005.1",
            "value": "MBH_200_onderbreken_MA_start"
          },
          "display": "relatie naar medicatieafspraak: MBH_200_onderbreken_MA_start || 2.16.840.1.113883.2.4.3.11.999.77.16076005.1"
        }
      },
      "request": {
        "method": "POST",
        "url": "MedicationRequest"
      }
    },
    {
      "fullUrl": "urn:uuid:c33f1eb4-6a95-11ec-0000-020000000000",
      "resource": {
        "resourceType": "MedicationRequest",
        "meta": {
          "profile": [
            "http://nictiz.nl/fhir/StructureDefinition/mp-MedicationAgreement"
          ]
        },
        "extension": [
          {
            "url": "http://nictiz.nl/fhir/StructureDefinition/ext-RenderedDosageInstruction",
            "valueString": "Vanaf T - 60 dagen, gedurende 28 dagen, 1 maal per dag 1 stuk, oraal"
          },
          {
            "url": "http://nictiz.nl/fhir/StructureDefinition/ext-TimeInterval.Period",
            "valuePeriod": {
              "extension": [
                {
                  "url": "http://nictiz.nl/fhir/StructureDefinition/ext-TimeInterval.Duration",
                  "valueDuration": {
                    "value": 28,
                    "unit": "dag",
                    "system": "http://unitsofmeasure.org",
                    "code": "d"
                  }
                }
              ],
              "start": "${DATE, T, D, -60}T00:00:00+02:00"
            }
          },
          {
            "url": "http://nictiz.nl/fhir/StructureDefinition/ext-PharmaceuticalTreatment.Identifier",
            "valueIdentifier": {
              "system": "urn:oid:2.16.840.1.113883.2.4.3.11.999.77.1.1",
              "value": "MBH_200_TAwijzigen"
            }
          }
        ],
        "identifier": [
          {
            "system": "urn:oid:2.16.840.1.113883.2.4.3.11.999.77.16076005.1",
            "value": "MBH_200_TAwijzigen_MA"
          }
        ],
        "status": "unknown",
        "intent": "order",
        "category": [
          {
            "coding": [
              {
                "system": "http://snomed.info/sct",
                "code": "33633005",
                "display": "voorschrijven van geneesmiddel"
              }
            ]
          }
        ],
        "medicationReference": {
          "reference": "urn:uuid:c33f1f4a-6a95-11ec-0000-020000000000",
          "type": "Medication",
          "display": "PANTOPRAZOL 40MG TABLET MSR"
        },
        "subject": {
          "reference": "urn:uuid:c33f1d2e-6a95-11ec-0000-020000000000",
          "type": "Patient",
          "display": "Patient, C. XXX_Dongen"
        },
        "authoredOn": "${DATE, T, D, -60}T11:30:00+02:00",
        "requester": {
          "reference": "urn:uuid:c33f1d4c-6a95-11ec-0000-020000000000",
          "type": "PractitionerRole",
          "display": "Healthcare professional (role), Bertine van Doorn, Huisartsen, niet nader gespecificeerd"
        },
        "dosageInstruction": [
          {
            "timing": {
              "repeat": {
                "frequency": 1,
                "period": 1,
                "periodUnit": "d"
              }
            },
            "route": {
              "coding": [
                {
                  "system": "urn:oid:2.16.840.1.113883.2.4.4.9",
                  "code": "9",
                  "display": "oraal"
                }
              ]
            },
            "doseAndRate": [
              {
                "doseQuantity": {
                  "extension": [
                    {
                      "url": "http://hl7.org/fhir/StructureDefinition/iso21090-PQ-translation",
                      "valueQuantity": {
                        "value": 1,
                        "unit": "stuk",
                        "system": "urn:oid:2.16.840.1.113883.2.4.4.1.900.2",
                        "code": "245"
                      }
                    }
                  ],
                  "value": 1,
                  "unit": "stuk",
                  "system": "http://unitsofmeasure.org",
                  "code": "1"
                }
              }
            ]
          }
        ]
      },
      "request": {
        "method": "POST",
        "url": "MedicationRequest"
      }
    },
    {
      "fullUrl": "urn:uuid:c33f1d2e-6a95-11ec-0000-020000000000",
      "resource": {
        "resourceType": "Patient",
        "meta": {
          "profile": [
            "http://nictiz.nl/fhir/StructureDefinition/nl-core-Patient"
          ]
        },
        "identifier": [
          {
            "system": "http://fhir.nl/fhir/NamingSystem/bsn",
            "value": "999900493"
          }
        ],
        "name": [
          {
            "extension": [
              {
                "url": "http://hl7.org/fhir/StructureDefinition/humanname-assembly-order",
                "valueCode": "NL1"
              }
            ],
            "use": "official",
            "text": "C. XXX_Dongen",
            "family": "XXX_Dongen",
            "_family": {
              "extension": [
                {
                  "url": "http://hl7.org/fhir/StructureDefinition/humanname-own-name",
                  "valueString": "XXX_Dongen"
                }
              ]
            },
            "given": [
              "C."
            ],
            "_given": [
              {
                "extension": [
                  {
                    "url": "http://hl7.org/fhir/StructureDefinition/iso21090-EN-qualifier",
                    "valueCode": "IN"
                  }
                ]
              }
            ]
          }
        ],
        "gender": "female",
        "_gender": {
          "extension": [
            {
              "url": "http://nictiz.nl/fhir/StructureDefinition/ext-CodeSpecification",
              "valueCodeableConcept": {
                "coding": [
                  {
                    "system": "http://terminology.hl7.org/CodeSystem/v3-AdministrativeGender",
                    "code": "F",
                    "display": "Vrouw"
                  }
                ]
              }
            }
          ]
        },
        "birthDate": "1963-10-23"
      },
      "request": {
        "method": "POST",
        "url": "Patient"
      }
    },
    {
      "fullUrl": "urn:uuid:c33f1d4c-6a95-11ec-0000-020000000000",
      "resource": {
        "resourceType": "PractitionerRole",
        "meta": {
          "profile": [
            "http://nictiz.nl/fhir/StructureDefinition/nl-core-HealthProfessional-PractitionerRole"
          ]
        },
        "practitioner": {
          "reference": "urn:uuid:c33f1d6a-6a95-11ec-0000-020000000000",
          "type": "Practitioner",
          "display": "Healthcare professional (person), Bertine van Doorn"
        },
        "organization": {
          "reference": "urn:uuid:c33f1f68-6a95-11ec-0000-020000000000",
          "type": "Organization",
          "display": "Healthcare provider (organization), Huisartsenpraktijk Pulver & Partners"
        },
        "specialty": [
          {
            "coding": [
              {
                "system": "urn:oid:2.16.840.1.113883.2.4.6.7",
                "version": "2020-10-23T00:00:00",
                "code": "0100",
                "display": "Huisartsen, niet nader gespecificeerd"
              }
            ]
          }
        ]
      },
      "request": {
        "method": "POST",
        "url": "PractitionerRole"
      }
    },
    {
      "fullUrl": "urn:uuid:c33f1d6a-6a95-11ec-0000-020000000000",
      "resource": {
        "resourceType": "Practitioner",
        "meta": {
          "profile": [
            "http://nictiz.nl/fhir/StructureDefinition/nl-core-HealthProfessional-Practitioner"
          ]
        },
        "identifier": [
          {
            "system": "http://fhir.nl/fhir/NamingSystem/uzi-nr-pers",
            "value": "000001112"
          }
        ],
        "name": [
          {
            "use": "official",
            "text": "Bertine van Doorn",
            "family": "van Doorn",
            "_family": {
              "extension": [
                {
                  "url": "http://hl7.org/fhir/StructureDefinition/humanname-own-prefix",
                  "valueString": "van"
                },
                {
                  "url": "http://hl7.org/fhir/StructureDefinition/humanname-own-name",
                  "valueString": "Doorn"
                }
              ]
            },
            "given": [
              "Bertine"
            ],
            "_given": [
              {
                "extension": [
                  {
                    "url": "http://hl7.org/fhir/StructureDefinition/iso21090-EN-qualifier",
                    "valueCode": "BR"
                  }
                ]
              }
            ]
          }
        ]
      },
      "request": {
        "method": "POST",
        "url": "Practitioner"
      }
    },
    {
      "fullUrl": "urn:uuid:c33f1f68-6a95-11ec-0000-020000000000",
      "resource": {
        "resourceType": "Organization",
        "meta": {
          "profile": [
            "http://nictiz.nl/fhir/StructureDefinition/nl-core-HealthcareProvider-Organization"
          ]
        },
        "identifier": [
          {
            "system": "http://fhir.nl/fhir/NamingSystem/ura",
            "value": "00001111"
          }
        ],
        "name": "Huisartsenpraktijk Pulver & Partners",
        "address": [
          {
            "extension": [
              {
                "url": "http://nictiz.nl/fhir/StructureDefinition/ext-AddressInformation.AddressType",
                "valueCodeableConcept": {
                  "coding": [
                    {
                      "system": "http://terminology.hl7.org/CodeSystem/v3-AddressUse",
                      "code": "WP",
                      "display": "Werkadres"
                    }
                  ]
                }
              }
            ],
            "use": "work",
            "line": [
              "Dorpsstraat 1"
            ],
            "_line": [
              {
                "extension": [
                  {
                    "url": "http://hl7.org/fhir/StructureDefinition/iso21090-ADXP-streetName",
                    "valueString": "Dorpsstraat"
                  },
                  {
                    "url": "http://hl7.org/fhir/StructureDefinition/iso21090-ADXP-houseNumber",
                    "valueString": "1"
                  }
                ]
              }
            ],
            "city": "Ons Dorp",
            "postalCode": "1234AA"
          }
        ]
      },
      "request": {
        "method": "POST",
        "url": "Organization"
      }
    },
    {
      "fullUrl": "urn:uuid:c33f1ed2-6a95-11ec-0000-020000000000",
      "resource": {
        "resourceType": "Medication",
        "meta": {
          "profile": [
            "http://nictiz.nl/fhir/StructureDefinition/nl-core-PharmaceuticalProduct"
          ]
        },
        "code": {
          "coding": [
            {
              "system": "urn:oid:2.16.840.1.113883.2.4.4.10",
              "code": "49484",
              "display": "Acetylsalicylzuur tabletmsr 100mg",
              "userSelected": true
            },
            {
              "system": "urn:oid:2.16.840.1.113883.2.4.4.1",
              "code": "103039",
              "display": "Acetylsalicylzuur tabletmsr 100mg"
            }
          ],
          "text": "Acetylsalicylzuur tabletmsr 100mg"
        }
      },
      "request": {
        "method": "POST",
        "url": "Medication"
      }
    },
    {
      "fullUrl": "urn:uuid:c33f1ef0-6a95-11ec-0000-020000000000",
      "resource": {
        "resourceType": "Medication",
        "meta": {
          "profile": [
            "http://nictiz.nl/fhir/StructureDefinition/nl-core-PharmaceuticalProduct"
          ]
        },
        "code": {
          "coding": [
            {
              "system": "urn:oid:2.16.840.1.113883.2.4.4.10",
              "code": "5967",
              "display": "FUROSEMIDE 40MG TABLET",
              "userSelected": true
            },
            {
              "system": "urn:oid:2.16.840.1.113883.2.4.4.1",
              "code": "16810",
              "display": "FUROSEMIDE 40MG TABLET"
            }
          ],
          "text": "FUROSEMIDE 40MG TABLET"
        }
      },
      "request": {
        "method": "POST",
        "url": "Medication"
      }
    },
    {
      "fullUrl": "urn:uuid:c33f1f0e-6a95-11ec-0000-020000000000",
      "resource": {
        "resourceType": "Medication",
        "meta": {
          "profile": [
            "http://nictiz.nl/fhir/StructureDefinition/nl-core-PharmaceuticalProduct"
          ]
        },
        "code": {
          "coding": [
            {
              "system": "urn:oid:2.16.840.1.113883.2.4.4.10",
              "code": "17205",
              "display": "FENETICILLINE CAPSULE 500MG",
              "userSelected": true
            },
            {
              "system": "urn:oid:2.16.840.1.113883.2.4.4.1",
              "code": "41092",
              "display": "FENETICILLINE 500MG CAPSULE"
            }
          ],
          "text": "FENETICILLINE CAPSULE 500MG"
        }
      },
      "request": {
        "method": "POST",
        "url": "Medication"
      }
    },
    {
      "fullUrl": "urn:uuid:c33f1f2c-6a95-11ec-0000-020000000000",
      "resource": {
        "resourceType": "Medication",
        "meta": {
          "profile": [
            "http://nictiz.nl/fhir/StructureDefinition/nl-core-PharmaceuticalProduct"
          ]
        },
        "code": {
          "coding": [
            {
              "system": "urn:oid:2.16.840.1.113883.2.4.4.10",
              "code": "42293",
              "display": "FERROFUMARAAT TABLET 200MG",
              "userSelected": true
            },
            {
              "system": "urn:oid:2.16.840.1.113883.2.4.4.1",
              "code": "15342",
              "display": "FERROFUMARAAT TABLET 200MG"
            }
          ],
          "text": "FERROFUMARAAT TABLET 200MG"
        }
      },
      "request": {
        "method": "POST",
        "url": "Medication"
      }
    },
    {
      "fullUrl": "urn:uuid:c33f1f4a-6a95-11ec-0000-020000000000",
      "resource": {
        "resourceType": "Medication",
        "meta": {
          "profile": [
            "http://nictiz.nl/fhir/StructureDefinition/nl-core-PharmaceuticalProduct"
          ]
        },
        "code": {
          "coding": [
            {
              "system": "urn:oid:2.16.840.1.113883.2.4.4.10",
              "code": "43044",
              "display": "PANTOPRAZOL 40MG TABLET MSR",
              "userSelected": true
            },
            {
              "system": "urn:oid:2.16.840.1.113883.2.4.4.1",
              "code": "96938",
              "display": "PANTOPRAZOL 40MG TABLET MSR"
            }
          ],
          "text": "PANTOPRAZOL 40MG TABLET MSR"
        }
      },
      "request": {
        "method": "POST",
        "url": "Medication"
      }
    }
  ]
}