{
  "resourceType": "Bundle",
  "id": "mg-mp-mg-tst-TA-Scenarioset10-v20",
  "type": "transaction",
  "entry": [ {
    "fullUrl": "urn:uuid:c33f1824-6a95-11ec-0000-020000000000",
    "resource": {
      "resourceType": "MedicationDispense",
      "meta": {
        "profile": [ "http://nictiz.nl/fhir/StructureDefinition/mp-AdministrationAgreement" ]
      },
      "text": {
        "status": "extensions",
        "div": "<div xmlns=\"http://www.w3.org/1999/xhtml\">\n            <table>\n              <caption>MedicationDispense. Subject: Patient, J. XXX_Bree. Id: MBH_200_ZINRvoorschrijven_TA (urn:oid:2.16.840.1.113883.2.4.3.11.999.77.422037009.1), Categorie: <span title=\"toedieningsafspraak (422037009 - SNOMED CT)\">toedieningsafspraak</span>, Status: onbekend<span style=\"display: block;\">Uitvoerende: Healthcare provider (organization), Apotheek De Gulle Gaper</span>\n              </caption>\n              <tbody>\n                <tr>\n                  <th>Gebaseerd op</th>\n                  <td>relatie naar medicatieafspraak met identificatie: MBH_200_ZINRvoorschrijven_MA || 2.16.840.1.113883.2.4.3.11.999.77.16076005.1 (Id: MBH_200_ZINRvoorschrijven_MA (urn:oid:2.16.840.1.113883.2.4.3.11.999.77.16076005.1))</td>\n                </tr>\n                <tr>\n                  <th>Medicatie</th>\n                  <td>INDAPAMIDE PCH TABET OMHULD 2,5MG</td>\n                </tr>\n                <tr>\n                  <th>Doseerinstructie</th>\n                  <td>\n                    <div>Timing: <div>eenmalig per dag</div>\n                    </div>\n                    <div>Toedieningsweg: <span title=\"Oraal (9 - G-Standaard thesaurus subtabel 0007)\">Oraal</span>\n                    </div>\n                    <div>Dosering: doseAndRate TODO</div>\n                  </td>\n                </tr>\n              </tbody>\n            </table>\n          </div>"
      },
      "extension": [ {
        "url": "http://nictiz.nl/fhir/StructureDefinition/ext-AdministrationAgreement.AdministrationAgreementDateTime",
        "valueDateTime": "${DATE, T, D, +0}T14:05:00+02:00"
      }, {
        "url": "http://nictiz.nl/fhir/StructureDefinition/ext-RenderedDosageInstruction",
        "valueString": "Vanaf T, tot en met T + 150 dagen, 1 maal per dag 1 stuk, Oraal"
      }, {
        "url": "http://nictiz.nl/fhir/StructureDefinition/ext-TimeInterval.Period",
        "valuePeriod": {
          "start": "${DATE, T, D, +0}T00:00:00+02:00",
          "end": "${DATE, T, D, +0}T23:59:59+02:00"
        }
      }, {
        "url": "http://nictiz.nl/fhir/StructureDefinition/ext-PharmaceuticalTreatment.Identifier",
        "valueIdentifier": {
          "system": "urn:oid:2.16.840.1.113883.2.4.3.11.999.77.1.1",
          "value": "MBH_200_ZINRvoorschrijven"
        }
      } ],
      "identifier": [ {
        "system": "urn:oid:2.16.840.1.113883.2.4.3.11.999.77.422037009.1",
        "value": "MBH_200_ZINRvoorschrijven_TA"
      } ],
      "status": "unknown",
      "category": {
        "coding": [ {
          "system": "http://snomed.info/sct",
          "code": "422037009",
          "display": "toedieningsafspraak"
        } ]
      },
      "medicationReference": {
        "reference": "urn:uuid:c33f1842-6a95-11ec-0000-020000000000",
        "type": "Medication",
        "display": "INDAPAMIDE PCH TABET OMHULD 2,5MG"
      },
      "subject": {
        "reference": "urn:uuid:c33f1806-6a95-11ec-0000-020000000000",
        "type": "Patient",
        "display": "Patient, J. XXX_Bree"
      },
      "performer": [ {
        "actor": {
          "reference": "urn:uuid:c33f1860-6a95-11ec-0000-020000000000",
          "type": "Organization",
          "display": "Healthcare provider (organization), Apotheek De Gulle Gaper"
        }
      } ],
      "authorizingPrescription": [ {
        "type": "MedicationRequest",
        "identifier": {
          "system": "urn:oid:2.16.840.1.113883.2.4.3.11.999.77.16076005.1",
          "value": "MBH_200_ZINRvoorschrijven_MA"
        },
        "display": "relatie naar medicatieafspraak met identificatie: MBH_200_ZINRvoorschrijven_MA || 2.16.840.1.113883.2.4.3.11.999.77.16076005.1"
      } ],
      "dosageInstruction": [ {
        "timing": {
          "repeat": {
            "frequency": 1,
            "period": 1,
            "periodUnit": "d"
          }
        },
        "route": {
          "coding": [ {
            "system": "urn:oid:2.16.840.1.113883.2.4.4.9",
            "code": "9",
            "display": "Oraal"
          } ]
        },
        "doseAndRate": [ {
          "doseQuantity": {
            "extension": [ {
              "url": "http://hl7.org/fhir/StructureDefinition/iso21090-PQ-translation",
              "valueQuantity": {
                "value": 1,
                "unit": "stuk",
                "system": "urn:oid:2.16.840.1.113883.2.4.4.1.900.2",
                "code": "245"
              }
            } ],
            "value": 1,
            "unit": "stuk",
            "system": "http://unitsofmeasure.org",
            "code": "1"
          }
        } ]
      } ]
    },
    "request": {
      "method": "POST",
      "url": "MedicationDispense"
    }
  }, {
    "fullUrl": "urn:uuid:c33f1806-6a95-11ec-0000-020000000000",
    "resource": {
      "resourceType": "Patient",
      "meta": {
        "profile": [ "http://nictiz.nl/fhir/StructureDefinition/nl-core-Patient" ]
      },
      "text": {
        "status": "extensions",
        "div": "<div xmlns=\"http://www.w3.org/1999/xhtml\">\n            <div>Id 999901588 (BSN), J. XXX_Bree, Man, 1 juli 2010</div>\n          </div>"
      },
      "identifier": [ {
        "system": "http://fhir.nl/fhir/NamingSystem/bsn",
        "value": "999901588"
      } ],
      "name": [ {
        "extension": [ {
          "url": "http://hl7.org/fhir/StructureDefinition/humanname-assembly-order",
          "valueCode": "NL1"
        } ],
        "use": "official",
        "text": "J. XXX_Bree",
        "family": "XXX_Bree",
        "_family": {
          "extension": [ {
            "url": "http://hl7.org/fhir/StructureDefinition/humanname-own-name",
            "valueString": "XXX_Bree"
          } ]
        },
        "given": [ "J." ],
        "_given": [ {
          "extension": [ {
            "url": "http://hl7.org/fhir/StructureDefinition/iso21090-EN-qualifier",
            "valueCode": "IN"
          } ]
        } ]
      } ],
      "gender": "male",
      "_gender": {
        "extension": [ {
          "url": "http://nictiz.nl/fhir/StructureDefinition/ext-CodeSpecification",
          "valueCodeableConcept": {
            "coding": [ {
              "system": "http://terminology.hl7.org/CodeSystem/v3-AdministrativeGender",
              "code": "M",
              "display": "Man"
            } ]
          }
        } ]
      },
      "birthDate": "2010-07-01"
    },
    "request": {
      "method": "POST",
      "url": "Patient"
    }
  }, {
    "fullUrl": "urn:uuid:c33f1860-6a95-11ec-0000-020000000000",
    "resource": {
      "resourceType": "Organization",
      "meta": {
        "profile": [ "http://nictiz.nl/fhir/StructureDefinition/nl-core-HealthcareProvider-Organization" ]
      },
      "text": {
        "status": "extensions",
        "div": "<div xmlns=\"http://www.w3.org/1999/xhtml\">\n            <table>\n              <caption>Organisatie. Id: 01236578 (URA)</caption>\n              <tbody>\n                <tr>\n                  <th>Naam</th>\n                  <td>Apotheek De Gulle Gaper</td>\n                </tr>\n              </tbody>\n            </table>\n          </div>"
      },
      "identifier": [ {
        "system": "http://fhir.nl/fhir/NamingSystem/ura",
        "value": "01236578"
      } ],
      "name": "Apotheek De Gulle Gaper"
    },
    "request": {
      "method": "POST",
      "url": "Organization"
    }
  }, {
    "fullUrl": "urn:uuid:c33f1842-6a95-11ec-0000-020000000000",
    "resource": {
      "resourceType": "Medication",
      "meta": {
        "profile": [ "http://nictiz.nl/fhir/StructureDefinition/nl-core-PharmaceuticalProduct" ]
      },
      "text": {
        "status": "extensions",
        "div": "<div xmlns=\"http://www.w3.org/1999/xhtml\">\n            <table>\n              <tbody>\n                <tr>\n                  <th>Code</th>\n                  <td>\n                    <span title=\"INDAPAMIDE PCH TABET OMHULD 2,5MG (13627163 - G-Standaard ZI_nummer)\">INDAPAMIDE PCH TABET OMHULD 2,5MG</span>\n                  </td>\n                </tr>\n              </tbody>\n            </table>\n          </div>"
      },
      "code": {
        "coding": [ {
          "system": "urn:oid:2.16.840.1.113883.2.4.4.8",
          "code": "13627163",
          "display": "INDAPAMIDE PCH TABET OMHULD 2,5MG",
          "userSelected": true
        }, {
          "system": "urn:oid:2.16.840.1.113883.2.4.4.7",
          "code": "695734",
          "display": "INDAPAMIDE PCH TABET OMHULD 2,5MG"
        }, {
          "system": "urn:oid:2.16.840.1.113883.2.4.4.10",
          "code": "2941",
          "display": "INDAPAMIDE 2,5MG TABLET"
        }, {
          "system": "urn:oid:2.16.840.1.113883.2.4.4.1",
          "code": "83593",
          "display": "INDAPAMIDE 2,5MG TABLET"
        } ],
        "text": "INDAPAMIDE PCH TABET OMHULD 2,5MG"
      }
    },
    "request": {
      "method": "POST",
      "url": "Medication"
    }
  } ]
}