<Bundle xmlns="http://hl7.org/fhir">
  <id value="mg-mp-mg-tst-MGB-Scenarioset0-v20"/>
  <type value="transaction"/>
  <entry>
    <fullUrl value="urn:uuid:c33f2152-6a95-11ec-0000-020000000000"/>
    <resource>
      <MedicationStatement>
        <meta>
          <profile value="http://nictiz.nl/fhir/StructureDefinition/mp-MedicationUse2"/>
        </meta>
        <text>
          <status value="extensions"/>
          <div xmlns="http://www.w3.org/1999/xhtml">
            <table>
              <caption>MedicationStatement. Subject: Patient, R. van XXX_Sonnenberg. Id: MBH_200_QA1_MGB (urn:oid:2.16.840.1.113883.2.4.3.11.999.77.6.1), Categorie: <span title="bevinding betreffende gedrag met betrekking tot medicatieregime (422979000 - SNOMED CT)">bevinding betreffende gedrag met betrekking tot medicatieregime</span>, Status: actief</caption>
              <tbody>
                <tr>
                  <th>Medicatie</th>
                  <td>IBUPROFEN PCH TABLET 600MG</td>
                </tr>
                <tr>
                  <th>Datum/tijd</th>
                  <td>${DATE, T, D, -20}T00:00:00+02:00 - ${DATE, T, D, +9}T23:59:59+02:00</td>
                </tr>
                <tr>
                  <th>Informant</th>
                  <td>${DATE, T, D, -1}T10:04:23+02:00</td>
                </tr>
                <tr>
                  <th>Ondersteunende informatie</th>
                  <td>relatie naar toedieningsafspraak (Id: MBH_200_QA1_TA (urn:oid:2.16.840.1.113883.2.4.3.11.999.77.422037009.1))</td>
                </tr>
                <tr>
                  <th>Dosering</th>
                  <td>
                    <div>Timing: <div>2 maal per dag</div>
                    </div>
                    <div>Toedieningsweg: <span title="oraal (9 - G-Standaard thesaurus subtabel 0007)">oraal</span>
                    </div>
                    <div>Dosering: doseAndRate TODO</div>
                  </td>
                </tr>
              </tbody>
            </table>
          </div>
        </text>
        <extension url="http://nictiz.nl/fhir/StructureDefinition/ext-RenderedDosageInstruction">
          <valueString value="Vanaf T - 20 dagen, tot en met T + 9 dagen, 2 maal per dag 1 stuk, oraal"/>
        </extension>
        <extension url="http://nictiz.nl/fhir/StructureDefinition/ext-MedicationUse2.Prescriber">
          <valueReference>
            <reference value="urn:uuid:c33f2116-6a95-11ec-0000-020000000000"/>
            <type value="PractitionerRole"/>
            <display value="Healthcare professional (role), Peter van Pulver, Huisartsen, niet nader gespecificeerd"/>
          </valueReference>
        </extension>
        <extension url="http://nictiz.nl/fhir/StructureDefinition/ext-AsAgreedIndicator">
          <valueBoolean value="true"/>
        </extension>
        <extension url="http://nictiz.nl/fhir/StructureDefinition/ext-PharmaceuticalTreatment.Identifier">
          <valueIdentifier>
            <system value="urn:oid:2.16.840.1.113883.2.4.3.11.999.77.1.1"/>
            <value value="MBH_200_QA1"/>
          </valueIdentifier>
        </extension>
        <extension url="http://nictiz.nl/fhir/StructureDefinition/ext-MedicationUse2.Author">
          <valueReference>
            <reference value="urn:uuid:c33f20f8-6a95-11ec-0000-020000000000"/>
            <type value="Patient"/>
            <display value="Patient, R. van XXX_Sonnenberg"/>
          </valueReference>
        </extension>
        <identifier>
          <system value="urn:oid:2.16.840.1.113883.2.4.3.11.999.77.6.1"/>
          <value value="MBH_200_QA1_MGB"/>
        </identifier>
        <status value="active"/>
        <category>
          <coding>
            <system value="http://snomed.info/sct"/>
            <code value="422979000"/>
            <display value="bevinding betreffende gedrag met betrekking tot medicatieregime"/>
          </coding>
        </category>
        <medicationReference>
          <reference value="urn:uuid:c33f2206-6a95-11ec-0000-020000000000"/>
          <type value="Medication"/>
          <display value="IBUPROFEN PCH TABLET 600MG"/>
        </medicationReference>
        <subject>
          <reference value="urn:uuid:c33f20f8-6a95-11ec-0000-020000000000"/>
          <type value="Patient"/>
          <display value="Patient, R. van XXX_Sonnenberg"/>
        </subject>
        <effectivePeriod>
          <start value="${DATE, T, D, -20}T00:00:00+02:00"/>
          <end value="${DATE, T, D, +9}T23:59:59+02:00"/>
        </effectivePeriod>
        <dateAsserted value="${DATE, T, D, -1}T10:04:23+02:00"/>
        <derivedFrom>
          <extension url="http://nictiz.nl/fhir/StructureDefinition/ext-ResourceCategory">
            <valueCodeableConcept>
              <coding>
                <system value="http://snomed.info/sct"/>
                <code value="422037009"/>
                <display value="toedieningsafspraak"/>
              </coding>
            </valueCodeableConcept>
          </extension>
          <identifier>
            <system value="urn:oid:2.16.840.1.113883.2.4.3.11.999.77.422037009.1"/>
            <value value="MBH_200_QA1_TA"/>
          </identifier>
          <display value="relatie naar toedieningsafspraak"/>
        </derivedFrom>
        <dosage>
          <timing>
            <repeat>
              <frequency value="2"/>
              <period value="1"/>
              <periodUnit value="d"/>
            </repeat>
          </timing>
          <route>
            <coding>
              <system value="urn:oid:2.16.840.1.113883.2.4.4.9"/>
              <code value="9"/>
              <display value="oraal"/>
            </coding>
          </route>
          <doseAndRate>
            <doseQuantity>
              <extension url="http://hl7.org/fhir/StructureDefinition/iso21090-PQ-translation">
                <valueQuantity>
                  <value value="1"/>
                  <unit value="stuk"/>
                  <system value="urn:oid:2.16.840.1.113883.2.4.4.1.900.2"/>
                  <code value="245"/>
                </valueQuantity>
              </extension>
              <value value="1"/>
              <unit value="stuk"/>
              <system value="http://unitsofmeasure.org"/>
              <code value="1"/>
            </doseQuantity>
          </doseAndRate>
        </dosage>
      </MedicationStatement>
    </resource>
    <request>
      <method value="POST"/>
      <url value="MedicationStatement"/>
    </request>
  </entry>
  <entry>
    <fullUrl value="urn:uuid:c33f2170-6a95-11ec-0000-020000000000"/>
    <resource>
      <MedicationStatement>
        <meta>
          <profile value="http://nictiz.nl/fhir/StructureDefinition/mp-MedicationUse2"/>
        </meta>
        <text>
          <status value="extensions"/>
          <div xmlns="http://www.w3.org/1999/xhtml">
            <table>
              <caption>MedicationStatement. Subject: Patient, R. van XXX_Sonnenberg. Id: MBH_200_QA2_MGB (urn:oid:2.16.840.1.113883.2.4.3.11.999.77.6.1), Categorie: <span title="bevinding betreffende gedrag met betrekking tot medicatieregime (422979000 - SNOMED CT)">bevinding betreffende gedrag met betrekking tot medicatieregime</span>, Status: actief</caption>
              <tbody>
                <tr>
                  <th>Medicatie</th>
                  <td>XPRAEP SIROOP 2MG/ML</td>
                </tr>
                <tr>
                  <th>Datum/tijd</th>
                  <td>${DATE, T, D, -100}T00:00:00+02:00 - ${DATE, T, D, -72}T23:59:59+02:00</td>
                </tr>
                <tr>
                  <th>Informant</th>
                  <td>${DATE, T, D, -68}T12:13:55+02:00</td>
                </tr>
                <tr>
                  <th>Ondersteunende informatie</th>
                  <td>relatie naar toedieningsafspraak (Id: MBH_200_QA2_TA (urn:oid:2.16.840.1.113883.2.4.3.11.999.77.422037009.1))</td>
                </tr>
                <tr>
                  <th>Dosering</th>
                  <td>
                    <div>Timing: <div>eenmalig per dag</div>
                    </div>
                    <div>Toedieningsweg: <span title="oraal (9 - G-Standaard thesaurus subtabel 0007)">oraal</span>
                    </div>
                    <div>Dosering: doseAndRate TODO</div>
                  </td>
                </tr>
              </tbody>
            </table>
          </div>
        </text>
        <extension url="http://nictiz.nl/fhir/StructureDefinition/ext-RenderedDosageInstruction">
          <valueString value="Vanaf T - 100 dagen, tot en met T - 72 dagen, 1 maal per dag 10 millimeter, oraal"/>
        </extension>
        <extension url="http://nictiz.nl/fhir/StructureDefinition/ext-MedicationUse2.Prescriber">
          <valueReference>
            <reference value="urn:uuid:c33f2116-6a95-11ec-0000-020000000000"/>
            <type value="PractitionerRole"/>
            <display value="Healthcare professional (role), Peter van Pulver, Huisartsen, niet nader gespecificeerd"/>
          </valueReference>
        </extension>
        <extension url="http://nictiz.nl/fhir/StructureDefinition/ext-AsAgreedIndicator">
          <valueBoolean value="true"/>
        </extension>
        <extension url="http://nictiz.nl/fhir/StructureDefinition/ext-PharmaceuticalTreatment.Identifier">
          <valueIdentifier>
            <system value="urn:oid:2.16.840.1.113883.2.4.3.11.999.77.1.1"/>
            <value value="MBH_200_QA2"/>
          </valueIdentifier>
        </extension>
        <extension url="http://nictiz.nl/fhir/StructureDefinition/ext-MedicationUse2.Author">
          <valueReference>
            <reference value="urn:uuid:c33f20f8-6a95-11ec-0000-020000000000"/>
            <type value="Patient"/>
            <display value="Patient, R. van XXX_Sonnenberg"/>
          </valueReference>
        </extension>
        <identifier>
          <system value="urn:oid:2.16.840.1.113883.2.4.3.11.999.77.6.1"/>
          <value value="MBH_200_QA2_MGB"/>
        </identifier>
        <status value="active"/>
        <category>
          <coding>
            <system value="http://snomed.info/sct"/>
            <code value="422979000"/>
            <display value="bevinding betreffende gedrag met betrekking tot medicatieregime"/>
          </coding>
        </category>
        <medicationReference>
          <reference value="urn:uuid:c33f2224-6a95-11ec-0000-020000000000"/>
          <type value="Medication"/>
          <display value="XPRAEP SIROOP 2MG/ML"/>
        </medicationReference>
        <subject>
          <reference value="urn:uuid:c33f20f8-6a95-11ec-0000-020000000000"/>
          <type value="Patient"/>
          <display value="Patient, R. van XXX_Sonnenberg"/>
        </subject>
        <effectivePeriod>
          <start value="${DATE, T, D, -100}T00:00:00+02:00"/>
          <end value="${DATE, T, D, -72}T23:59:59+02:00"/>
        </effectivePeriod>
        <dateAsserted value="${DATE, T, D, -68}T12:13:55+02:00"/>
        <derivedFrom>
          <extension url="http://nictiz.nl/fhir/StructureDefinition/ext-ResourceCategory">
            <valueCodeableConcept>
              <coding>
                <system value="http://snomed.info/sct"/>
                <code value="422037009"/>
                <display value="toedieningsafspraak"/>
              </coding>
            </valueCodeableConcept>
          </extension>
          <identifier>
            <system value="urn:oid:2.16.840.1.113883.2.4.3.11.999.77.422037009.1"/>
            <value value="MBH_200_QA2_TA"/>
          </identifier>
          <display value="relatie naar toedieningsafspraak"/>
        </derivedFrom>
        <dosage>
          <timing>
            <repeat>
              <frequency value="1"/>
              <period value="1"/>
              <periodUnit value="d"/>
            </repeat>
          </timing>
          <route>
            <coding>
              <system value="urn:oid:2.16.840.1.113883.2.4.4.9"/>
              <code value="9"/>
              <display value="oraal"/>
            </coding>
          </route>
          <doseAndRate>
            <doseQuantity>
              <extension url="http://hl7.org/fhir/StructureDefinition/iso21090-PQ-translation">
                <valueQuantity>
                  <value value="10"/>
                  <unit value="millimeter"/>
                  <system value="urn:oid:2.16.840.1.113883.2.4.4.1.900.2"/>
                  <code value="233"/>
                </valueQuantity>
              </extension>
              <value value="10"/>
              <unit value="millimeter"/>
              <system value="http://unitsofmeasure.org"/>
              <code value="ml"/>
            </doseQuantity>
          </doseAndRate>
        </dosage>
      </MedicationStatement>
    </resource>
    <request>
      <method value="POST"/>
      <url value="MedicationStatement"/>
    </request>
  </entry>
  <entry>
    <fullUrl value="urn:uuid:c33f218e-6a95-11ec-0000-020000000000"/>
    <resource>
      <MedicationStatement>
        <meta>
          <profile value="http://nictiz.nl/fhir/StructureDefinition/mp-MedicationUse2"/>
        </meta>
        <text>
          <status value="extensions"/>
          <div xmlns="http://www.w3.org/1999/xhtml">
            <table>
              <caption>MedicationStatement. Subject: Patient, R. van XXX_Sonnenberg. Id: MBH_200_QA3_MGB (urn:oid:2.16.840.1.113883.2.4.3.11.999.77.6.1), Categorie: <span title="bevinding betreffende gedrag met betrekking tot medicatieregime (422979000 - SNOMED CT)">bevinding betreffende gedrag met betrekking tot medicatieregime</span>, Status: actief</caption>
              <tbody>
                <tr>
                  <th>Medicatie</th>
                  <td>NUTRIDRINK BANAANSMAAK</td>
                </tr>
                <tr>
                  <th>Datum/tijd</th>
                  <td>${DATE, T, D, -50}T00:00:00+02:00 - ${DATE, T, D, -11}T23:59:59+02:00</td>
                </tr>
                <tr>
                  <th>Informant</th>
                  <td>${DATE, T, D, -9}T07:59:59+02:00</td>
                </tr>
                <tr>
                  <th>Ondersteunende informatie</th>
                  <td>
                    <ul>
                      <li>relatie naar medicatieafspraak (Id: MBH_200_QA3_MA (urn:oid:2.16.840.1.113883.2.4.3.11.999.77.16076005.1))</li>
                      <li>relatie naar toedieningsafspraak (Id: MBH_200_QA3_TA (urn:oid:2.16.840.1.113883.2.4.3.11.999.77.422037009.1))</li>
                    </ul>
                  </td>
                </tr>
                <tr>
                  <th>Dosering</th>
                  <td>
                    <div>Timing: <div>2 maal per dag</div>
                    </div>
                    <div>Toedieningsweg: <span title="oraal (9 - G-Standaard thesaurus subtabel 0007)">oraal</span>
                    </div>
                    <div>Dosering: doseAndRate TODO</div>
                  </td>
                </tr>
              </tbody>
            </table>
          </div>
        </text>
        <extension url="http://nictiz.nl/fhir/StructureDefinition/ext-RenderedDosageInstruction">
          <valueString value="Vanaf T - 50 dagen, tot en met T - 11 dagen, 2 maal per dag 50 ml, oraal"/>
        </extension>
        <extension url="http://nictiz.nl/fhir/StructureDefinition/ext-MedicationUse2.Prescriber">
          <valueReference>
            <reference value="urn:uuid:c33f2116-6a95-11ec-0000-020000000000"/>
            <type value="PractitionerRole"/>
            <display value="Healthcare professional (role), Peter van Pulver, Huisartsen, niet nader gespecificeerd"/>
          </valueReference>
        </extension>
        <extension url="http://nictiz.nl/fhir/StructureDefinition/ext-AsAgreedIndicator">
          <valueBoolean value="true"/>
        </extension>
        <extension url="http://nictiz.nl/fhir/StructureDefinition/ext-PharmaceuticalTreatment.Identifier">
          <valueIdentifier>
            <system value="urn:oid:2.16.840.1.113883.2.4.3.11.999.77.1.1"/>
            <value value="MBH_200_QA3"/>
          </valueIdentifier>
        </extension>
        <extension url="http://nictiz.nl/fhir/StructureDefinition/ext-MedicationUse2.Author">
          <valueReference>
            <reference value="urn:uuid:c33f2116-6a95-11ec-0000-020000000000"/>
            <type value="PractitionerRole"/>
            <display value="Healthcare professional (role), Peter van Pulver, Huisartsen, niet nader gespecificeerd"/>
          </valueReference>
        </extension>
        <identifier>
          <system value="urn:oid:2.16.840.1.113883.2.4.3.11.999.77.6.1"/>
          <value value="MBH_200_QA3_MGB"/>
        </identifier>
        <status value="active"/>
        <category>
          <coding>
            <system value="http://snomed.info/sct"/>
            <code value="422979000"/>
            <display value="bevinding betreffende gedrag met betrekking tot medicatieregime"/>
          </coding>
        </category>
        <medicationReference>
          <reference value="urn:uuid:c33f2242-6a95-11ec-0000-020000000000"/>
          <type value="Medication"/>
          <display value="NUTRIDRINK BANAANSMAAK"/>
        </medicationReference>
        <subject>
          <reference value="urn:uuid:c33f20f8-6a95-11ec-0000-020000000000"/>
          <type value="Patient"/>
          <display value="Patient, R. van XXX_Sonnenberg"/>
        </subject>
        <effectivePeriod>
          <start value="${DATE, T, D, -50}T00:00:00+02:00"/>
          <end value="${DATE, T, D, -11}T23:59:59+02:00"/>
        </effectivePeriod>
        <dateAsserted value="${DATE, T, D, -9}T07:59:59+02:00"/>
        <derivedFrom>
          <extension url="http://nictiz.nl/fhir/StructureDefinition/ext-ResourceCategory">
            <valueCodeableConcept>
              <coding>
                <system value="http://snomed.info/sct"/>
                <code value="33633005"/>
                <display value="voorschrijven"/>
              </coding>
            </valueCodeableConcept>
          </extension>
          <identifier>
            <system value="urn:oid:2.16.840.1.113883.2.4.3.11.999.77.16076005.1"/>
            <value value="MBH_200_QA3_MA"/>
          </identifier>
          <display value="relatie naar medicatieafspraak"/>
        </derivedFrom>
        <derivedFrom>
          <extension url="http://nictiz.nl/fhir/StructureDefinition/ext-ResourceCategory">
            <valueCodeableConcept>
              <coding>
                <system value="http://snomed.info/sct"/>
                <code value="422037009"/>
                <display value="toedieningsafspraak"/>
              </coding>
            </valueCodeableConcept>
          </extension>
          <identifier>
            <system value="urn:oid:2.16.840.1.113883.2.4.3.11.999.77.422037009.1"/>
            <value value="MBH_200_QA3_TA"/>
          </identifier>
          <display value="relatie naar toedieningsafspraak"/>
        </derivedFrom>
        <dosage>
          <timing>
            <repeat>
              <frequency value="2"/>
              <period value="1"/>
              <periodUnit value="d"/>
            </repeat>
          </timing>
          <route>
            <coding>
              <system value="urn:oid:2.16.840.1.113883.2.4.4.9"/>
              <code value="9"/>
              <display value="oraal"/>
            </coding>
          </route>
          <doseAndRate>
            <doseQuantity>
              <extension url="http://hl7.org/fhir/StructureDefinition/iso21090-PQ-translation">
                <valueQuantity>
                  <value value="50"/>
                  <unit value="milliliter"/>
                  <system value="urn:oid:2.16.840.1.113883.2.4.4.1.900.2"/>
                  <code value="233"/>
                </valueQuantity>
              </extension>
              <value value="50"/>
              <unit value="milliliter"/>
              <system value="http://unitsofmeasure.org"/>
              <code value="ml"/>
            </doseQuantity>
          </doseAndRate>
        </dosage>
      </MedicationStatement>
    </resource>
    <request>
      <method value="POST"/>
      <url value="MedicationStatement"/>
    </request>
  </entry>
  <entry>
    <fullUrl value="urn:uuid:c33f21ac-6a95-11ec-0000-020000000000"/>
    <resource>
      <MedicationStatement>
        <meta>
          <profile value="http://nictiz.nl/fhir/StructureDefinition/mp-MedicationUse2"/>
        </meta>
        <text>
          <status value="extensions"/>
          <div xmlns="http://www.w3.org/1999/xhtml">
            <table>
              <caption>MedicationStatement. Subject: Patient, R. van XXX_Sonnenberg. Id: MBH_200_QA4_MGB (urn:oid:2.16.840.1.113883.2.4.3.11.999.77.6.1), Categorie: <span title="bevinding betreffende gedrag met betrekking tot medicatieregime (422979000 - SNOMED CT)">bevinding betreffende gedrag met betrekking tot medicatieregime</span>, Status: actief</caption>
              <tbody>
                <tr>
                  <th>Medicatie</th>
                  <td>ACETYLSALICYLZUUR TABLET 100MG</td>
                </tr>
                <tr>
                  <th>Datum/tijd</th>
                  <td>${DATE, T, D, -10}T00:00:00+02:00 - ${DATE, T, D, +19}T23:59:59+02:00</td>
                </tr>
                <tr>
                  <th>Informant</th>
                  <td>${DATE, T, D, -2}T08:12:00+02:00 - Patient, R. van XXX_Sonnenberg</td>
                </tr>
                <tr>
                  <th>Ondersteunende informatie</th>
                  <td>relatie naar medicatieafspraak (Id: MBH_200_QA4_MA (urn:oid:2.16.840.1.113883.2.4.3.11.999.77.16076005.1))</td>
                </tr>
                <tr>
                  <th>Dosering</th>
                  <td>
                    <div>Timing: <div>eenmalig per dag</div>
                    </div>
                    <div>Toedieningsweg: <span title="oraal (9 - G-Standaard thesaurus subtabel 0007)">oraal</span>
                    </div>
                    <div>Dosering: doseAndRate TODO</div>
                  </td>
                </tr>
              </tbody>
            </table>
          </div>
        </text>
        <extension url="http://nictiz.nl/fhir/StructureDefinition/ext-RenderedDosageInstruction">
          <valueString value="Vanaf T - 10 dagen, tot en met T + 19 dagen, 1 maal per dag 1 stuk, oraal"/>
        </extension>
        <extension url="http://nictiz.nl/fhir/StructureDefinition/ext-MedicationUse2.Prescriber">
          <valueReference>
            <reference value="urn:uuid:c33f2116-6a95-11ec-0000-020000000000"/>
            <type value="PractitionerRole"/>
            <display value="Healthcare professional (role), Peter van Pulver, Huisartsen, niet nader gespecificeerd"/>
          </valueReference>
        </extension>
        <extension url="http://nictiz.nl/fhir/StructureDefinition/ext-AsAgreedIndicator">
          <valueBoolean value="true"/>
        </extension>
        <extension url="http://nictiz.nl/fhir/StructureDefinition/ext-PharmaceuticalTreatment.Identifier">
          <valueIdentifier>
            <system value="urn:oid:2.16.840.1.113883.2.4.3.11.999.77.1.1"/>
            <value value="MBH_200_QA4"/>
          </valueIdentifier>
        </extension>
        <extension url="http://nictiz.nl/fhir/StructureDefinition/ext-MedicationUse2.Author">
          <valueReference>
            <reference value="urn:uuid:c33f2116-6a95-11ec-0000-020000000000"/>
            <type value="PractitionerRole"/>
            <display value="Healthcare professional (role), Peter van Pulver, Huisartsen, niet nader gespecificeerd"/>
          </valueReference>
        </extension>
        <identifier>
          <system value="urn:oid:2.16.840.1.113883.2.4.3.11.999.77.6.1"/>
          <value value="MBH_200_QA4_MGB"/>
        </identifier>
        <status value="active"/>
        <category>
          <coding>
            <system value="http://snomed.info/sct"/>
            <code value="422979000"/>
            <display value="bevinding betreffende gedrag met betrekking tot medicatieregime"/>
          </coding>
        </category>
        <medicationReference>
          <reference value="urn:uuid:c33f2260-6a95-11ec-0000-020000000000"/>
          <type value="Medication"/>
          <display value="ACETYLSALICYLZUUR TABLET 100MG"/>
        </medicationReference>
        <subject>
          <reference value="urn:uuid:c33f20f8-6a95-11ec-0000-020000000000"/>
          <type value="Patient"/>
          <display value="Patient, R. van XXX_Sonnenberg"/>
        </subject>
        <effectivePeriod>
          <start value="${DATE, T, D, -10}T00:00:00+02:00"/>
          <end value="${DATE, T, D, +19}T23:59:59+02:00"/>
        </effectivePeriod>
        <dateAsserted value="${DATE, T, D, -2}T08:12:00+02:00"/>
        <informationSource>
          <reference value="urn:uuid:c33f20f8-6a95-11ec-0000-020000000000"/>
          <type value="Patient"/>
          <display value="Patient, R. van XXX_Sonnenberg"/>
        </informationSource>
        <derivedFrom>
          <extension url="http://nictiz.nl/fhir/StructureDefinition/ext-ResourceCategory">
            <valueCodeableConcept>
              <coding>
                <system value="http://snomed.info/sct"/>
                <code value="33633005"/>
                <display value="voorschrijven"/>
              </coding>
            </valueCodeableConcept>
          </extension>
          <identifier>
            <system value="urn:oid:2.16.840.1.113883.2.4.3.11.999.77.16076005.1"/>
            <value value="MBH_200_QA4_MA"/>
          </identifier>
          <display value="relatie naar medicatieafspraak"/>
        </derivedFrom>
        <dosage>
          <timing>
            <repeat>
              <frequency value="1"/>
              <period value="1"/>
              <periodUnit value="d"/>
            </repeat>
          </timing>
          <route>
            <coding>
              <system value="urn:oid:2.16.840.1.113883.2.4.4.9"/>
              <code value="9"/>
              <display value="oraal"/>
            </coding>
          </route>
          <doseAndRate>
            <doseQuantity>
              <extension url="http://hl7.org/fhir/StructureDefinition/iso21090-PQ-translation">
                <valueQuantity>
                  <value value="1"/>
                  <unit value="stuk"/>
                  <system value="urn:oid:2.16.840.1.113883.2.4.4.1.900.2"/>
                  <code value="245"/>
                </valueQuantity>
              </extension>
              <value value="1"/>
              <unit value="stuk"/>
              <system value="http://unitsofmeasure.org"/>
              <code value="1"/>
            </doseQuantity>
          </doseAndRate>
        </dosage>
      </MedicationStatement>
    </resource>
    <request>
      <method value="POST"/>
      <url value="MedicationStatement"/>
    </request>
  </entry>
  <entry>
    <fullUrl value="urn:uuid:c33f21ca-6a95-11ec-0000-020000000000"/>
    <resource>
      <MedicationStatement>
        <meta>
          <profile value="http://nictiz.nl/fhir/StructureDefinition/mp-MedicationUse2"/>
        </meta>
        <text>
          <status value="extensions"/>
          <div xmlns="http://www.w3.org/1999/xhtml">
            <table>
              <caption>MedicationStatement. Subject: Patient, R. van XXX_Sonnenberg. Id: MBH_200_QA5_MGB (urn:oid:2.16.840.1.113883.2.4.3.11.999.77.6.1), Categorie: <span title="bevinding betreffende gedrag met betrekking tot medicatieregime (422979000 - SNOMED CT)">bevinding betreffende gedrag met betrekking tot medicatieregime</span>, Status: actief</caption>
              <tbody>
                <tr>
                  <th>Medicatie</th>
                  <td>PARACETAMOL SANDOZ TABLET 500MG</td>
                </tr>
                <tr>
                  <th>Datum/tijd</th>
                  <td>${DATE, T, D, -50}T00:00:00+02:00 - ${DATE, T, D, -44}T23:59:59+02:00</td>
                </tr>
                <tr>
                  <th>Informant</th>
                  <td>${DATE, T, D, -43}T08:00:00+02:00 - Patient, R. van XXX_Sonnenberg</td>
                </tr>
                <tr>
                  <th>Ondersteunende informatie</th>
                  <td>relatie naar toedieningsafspraak (Id: MBH_200_QA5_TA (urn:oid:2.16.840.1.113883.2.4.3.11.999.77.422037009.1))</td>
                </tr>
                <tr>
                  <th>Dosering</th>
                  <td>
                    <div>Timing: <div>4 maal per dag</div>
                    </div>
                    <div>Toedieningsweg: <span title="oraal (9 - G-Standaard thesaurus subtabel 0007)">oraal</span>
                    </div>
                    <div>Dosering: doseAndRate TODO</div>
                  </td>
                </tr>
              </tbody>
            </table>
          </div>
        </text>
        <extension url="http://nictiz.nl/fhir/StructureDefinition/ext-RenderedDosageInstruction">
          <valueString value="Vanaf T - 50 dagen, tot en met T - 44 dagen, 4 maal per dag 2 stuks, oraal"/>
        </extension>
        <extension url="http://nictiz.nl/fhir/StructureDefinition/ext-MedicationUse2.Prescriber">
          <valueReference>
            <reference value="urn:uuid:c33f2116-6a95-11ec-0000-020000000000"/>
            <type value="PractitionerRole"/>
            <display value="Healthcare professional (role), Peter van Pulver, Huisartsen, niet nader gespecificeerd"/>
          </valueReference>
        </extension>
        <extension url="http://nictiz.nl/fhir/StructureDefinition/ext-AsAgreedIndicator">
          <valueBoolean value="true"/>
        </extension>
        <extension url="http://nictiz.nl/fhir/StructureDefinition/ext-PharmaceuticalTreatment.Identifier">
          <valueIdentifier>
            <system value="urn:oid:2.16.840.1.113883.2.4.3.11.999.77.1.1"/>
            <value value="MBH_200_QA5"/>
          </valueIdentifier>
        </extension>
        <extension url="http://nictiz.nl/fhir/StructureDefinition/ext-MedicationUse2.Author">
          <valueReference>
            <reference value="urn:uuid:c33f2116-6a95-11ec-0000-020000000000"/>
            <type value="PractitionerRole"/>
            <display value="Healthcare professional (role), Peter van Pulver, Huisartsen, niet nader gespecificeerd"/>
          </valueReference>
        </extension>
        <identifier>
          <system value="urn:oid:2.16.840.1.113883.2.4.3.11.999.77.6.1"/>
          <value value="MBH_200_QA5_MGB"/>
        </identifier>
        <status value="active"/>
        <category>
          <coding>
            <system value="http://snomed.info/sct"/>
            <code value="422979000"/>
            <display value="bevinding betreffende gedrag met betrekking tot medicatieregime"/>
          </coding>
        </category>
        <medicationReference>
          <reference value="urn:uuid:c33f227e-6a95-11ec-0000-020000000000"/>
          <type value="Medication"/>
          <display value="PARACETAMOL SANDOZ TABLET 500MG"/>
        </medicationReference>
        <subject>
          <reference value="urn:uuid:c33f20f8-6a95-11ec-0000-020000000000"/>
          <type value="Patient"/>
          <display value="Patient, R. van XXX_Sonnenberg"/>
        </subject>
        <effectivePeriod>
          <start value="${DATE, T, D, -50}T00:00:00+02:00"/>
          <end value="${DATE, T, D, -44}T23:59:59+02:00"/>
        </effectivePeriod>
        <dateAsserted value="${DATE, T, D, -43}T08:00:00+02:00"/>
        <informationSource>
          <reference value="urn:uuid:c33f20f8-6a95-11ec-0000-020000000000"/>
          <type value="Patient"/>
          <display value="Patient, R. van XXX_Sonnenberg"/>
        </informationSource>
        <derivedFrom>
          <extension url="http://nictiz.nl/fhir/StructureDefinition/ext-ResourceCategory">
            <valueCodeableConcept>
              <coding>
                <system value="http://snomed.info/sct"/>
                <code value="422037009"/>
                <display value="toedieningsafspraak"/>
              </coding>
            </valueCodeableConcept>
          </extension>
          <identifier>
            <system value="urn:oid:2.16.840.1.113883.2.4.3.11.999.77.422037009.1"/>
            <value value="MBH_200_QA5_TA"/>
          </identifier>
          <display value="relatie naar toedieningsafspraak"/>
        </derivedFrom>
        <dosage>
          <timing>
            <repeat>
              <frequency value="4"/>
              <period value="1"/>
              <periodUnit value="d"/>
            </repeat>
          </timing>
          <route>
            <coding>
              <system value="urn:oid:2.16.840.1.113883.2.4.4.9"/>
              <code value="9"/>
              <display value="oraal"/>
            </coding>
          </route>
          <doseAndRate>
            <doseQuantity>
              <extension url="http://hl7.org/fhir/StructureDefinition/iso21090-PQ-translation">
                <valueQuantity>
                  <value value="2"/>
                  <unit value="stuk"/>
                  <system value="urn:oid:2.16.840.1.113883.2.4.4.1.900.2"/>
                  <code value="245"/>
                </valueQuantity>
              </extension>
              <value value="2"/>
              <unit value="stuk"/>
              <system value="http://unitsofmeasure.org"/>
              <code value="1"/>
            </doseQuantity>
          </doseAndRate>
        </dosage>
      </MedicationStatement>
    </resource>
    <request>
      <method value="POST"/>
      <url value="MedicationStatement"/>
    </request>
  </entry>
  <entry>
    <fullUrl value="urn:uuid:c33f21e8-6a95-11ec-0000-020000000000"/>
    <resource>
      <MedicationStatement>
        <meta>
          <profile value="http://nictiz.nl/fhir/StructureDefinition/mp-MedicationUse2"/>
        </meta>
        <text>
          <status value="extensions"/>
          <div xmlns="http://www.w3.org/1999/xhtml">
            <table>
              <caption>MedicationStatement. Subject: Patient, R. van XXX_Sonnenberg. Id: MBH_200_QA6_MGB (urn:oid:2.16.840.1.113883.2.4.3.11.999.77.6.1), Categorie: <span title="bevinding betreffende gedrag met betrekking tot medicatieregime (422979000 - SNOMED CT)">bevinding betreffende gedrag met betrekking tot medicatieregime</span>, Status: actief</caption>
              <tbody>
                <tr>
                  <th>Medicatie</th>
                  <td>OXAZEPAM TABLET 10MG</td>
                </tr>
                <tr>
                  <th>Datum/tijd</th>
                  <td>${DATE, T, D, -5}T00:00:00+02:00 - ${DATE, T, D, +1}T23:59:59+02:00</td>
                </tr>
                <tr>
                  <th>Informant</th>
                  <td>${DATE, T, D, -2}T08:59:59+02:00 - Patient, R. van XXX_Sonnenberg</td>
                </tr>
                <tr>
                  <th>Ondersteunende informatie</th>
                  <td>relatie naar medicatieafspraak (Id: MBH_200_QA6_MA (urn:oid:2.16.840.1.113883.2.4.3.11.999.77.16076005.1))</td>
                </tr>
                <tr>
                  <th>Dosering</th>
                  <td>
                    <div>Timing: <div>3 maal per dag</div>
                    </div>
                    <div>Toedieningsweg: <span title="oraal (9 - G-Standaard thesaurus subtabel 0007)">oraal</span>
                    </div>
                    <div>Dosering: doseAndRate TODO</div>
                  </td>
                </tr>
              </tbody>
            </table>
          </div>
        </text>
        <extension url="http://nictiz.nl/fhir/StructureDefinition/ext-RenderedDosageInstruction">
          <valueString value="Vanaf T - 5 dagen, tot en met T + 1 dag, 3 maal per dag 1 stuk, oraal"/>
        </extension>
        <extension url="http://nictiz.nl/fhir/StructureDefinition/ext-MedicationUse2.Prescriber">
          <valueReference>
            <reference value="urn:uuid:c33f2116-6a95-11ec-0000-020000000000"/>
            <type value="PractitionerRole"/>
            <display value="Healthcare professional (role), Peter van Pulver, Huisartsen, niet nader gespecificeerd"/>
          </valueReference>
        </extension>
        <extension url="http://nictiz.nl/fhir/StructureDefinition/ext-AsAgreedIndicator">
          <valueBoolean value="true"/>
        </extension>
        <extension url="http://nictiz.nl/fhir/StructureDefinition/ext-PharmaceuticalTreatment.Identifier">
          <valueIdentifier>
            <system value="urn:oid:2.16.840.1.113883.2.4.3.11.999.77.1.1"/>
            <value value="MBH_200_QA6"/>
          </valueIdentifier>
        </extension>
        <extension url="http://nictiz.nl/fhir/StructureDefinition/ext-MedicationUse2.Author">
          <valueReference>
            <reference value="urn:uuid:c33f2116-6a95-11ec-0000-020000000000"/>
            <type value="PractitionerRole"/>
            <display value="Healthcare professional (role), Peter van Pulver, Huisartsen, niet nader gespecificeerd"/>
          </valueReference>
        </extension>
        <identifier>
          <system value="urn:oid:2.16.840.1.113883.2.4.3.11.999.77.6.1"/>
          <value value="MBH_200_QA6_MGB"/>
        </identifier>
        <status value="active"/>
        <category>
          <coding>
            <system value="http://snomed.info/sct"/>
            <code value="422979000"/>
            <display value="bevinding betreffende gedrag met betrekking tot medicatieregime"/>
          </coding>
        </category>
        <medicationReference>
          <reference value="urn:uuid:c33f229c-6a95-11ec-0000-020000000000"/>
          <type value="Medication"/>
          <display value="OXAZEPAM TABLET 10MG"/>
        </medicationReference>
        <subject>
          <reference value="urn:uuid:c33f20f8-6a95-11ec-0000-020000000000"/>
          <type value="Patient"/>
          <display value="Patient, R. van XXX_Sonnenberg"/>
        </subject>
        <effectivePeriod>
          <start value="${DATE, T, D, -5}T00:00:00+02:00"/>
          <end value="${DATE, T, D, +1}T23:59:59+02:00"/>
        </effectivePeriod>
        <dateAsserted value="${DATE, T, D, -2}T08:59:59+02:00"/>
        <informationSource>
          <reference value="urn:uuid:c33f20f8-6a95-11ec-0000-020000000000"/>
          <type value="Patient"/>
          <display value="Patient, R. van XXX_Sonnenberg"/>
        </informationSource>
        <derivedFrom>
          <extension url="http://nictiz.nl/fhir/StructureDefinition/ext-ResourceCategory">
            <valueCodeableConcept>
              <coding>
                <system value="http://snomed.info/sct"/>
                <code value="33633005"/>
                <display value="voorschrijven"/>
              </coding>
            </valueCodeableConcept>
          </extension>
          <identifier>
            <system value="urn:oid:2.16.840.1.113883.2.4.3.11.999.77.16076005.1"/>
            <value value="MBH_200_QA6_MA"/>
          </identifier>
          <display value="relatie naar medicatieafspraak"/>
        </derivedFrom>
        <dosage>
          <timing>
            <repeat>
              <frequency value="3"/>
              <period value="1"/>
              <periodUnit value="d"/>
            </repeat>
          </timing>
          <route>
            <coding>
              <system value="urn:oid:2.16.840.1.113883.2.4.4.9"/>
              <code value="9"/>
              <display value="oraal"/>
            </coding>
          </route>
          <doseAndRate>
            <doseQuantity>
              <extension url="http://hl7.org/fhir/StructureDefinition/iso21090-PQ-translation">
                <valueQuantity>
                  <value value="1"/>
                  <unit value="stuk"/>
                  <system value="urn:oid:2.16.840.1.113883.2.4.4.1.900.2"/>
                  <code value="245"/>
                </valueQuantity>
              </extension>
              <value value="1"/>
              <unit value="stuk"/>
              <system value="http://unitsofmeasure.org"/>
              <code value="1"/>
            </doseQuantity>
          </doseAndRate>
        </dosage>
      </MedicationStatement>
    </resource>
    <request>
      <method value="POST"/>
      <url value="MedicationStatement"/>
    </request>
  </entry>
  <entry>
    <fullUrl value="urn:uuid:c33f20f8-6a95-11ec-0000-020000000000"/>
    <resource>
      <Patient>
        <meta>
          <profile value="http://nictiz.nl/fhir/StructureDefinition/nl-core-Patient"/>
        </meta>
        <text>
          <status value="extensions"/>
          <div xmlns="http://www.w3.org/1999/xhtml">
            <div>Id 999901084 (BSN), R. van XXX_Sonnenberg, Man, 20 november 1985</div>
          </div>
        </text>
        <identifier>
          <system value="http://fhir.nl/fhir/NamingSystem/bsn"/>
          <value value="999901084"/>
        </identifier>
        <name>
          <extension url="http://hl7.org/fhir/StructureDefinition/humanname-assembly-order">
            <valueCode value="NL1"/>
          </extension>
          <use value="official"/>
          <text value="R. van XXX_Sonnenberg"/>
          <family value="van XXX_Sonnenberg">
            <extension url="http://hl7.org/fhir/StructureDefinition/humanname-own-prefix">
              <valueString value="van"/>
            </extension>
            <extension url="http://hl7.org/fhir/StructureDefinition/humanname-own-name">
              <valueString value="XXX_Sonnenberg"/>
            </extension>
          </family>
          <given value="R.">
            <extension url="http://hl7.org/fhir/StructureDefinition/iso21090-EN-qualifier">
              <valueCode value="IN"/>
            </extension>
          </given>
        </name>
        <gender value="male">
          <extension url="http://nictiz.nl/fhir/StructureDefinition/ext-CodeSpecification">
            <valueCodeableConcept>
              <coding>
                <system value="http://terminology.hl7.org/CodeSystem/v3-AdministrativeGender"/>
                <code value="M"/>
                <display value="Man"/>
              </coding>
            </valueCodeableConcept>
          </extension>
        </gender>
        <birthDate value="1985-11-20"/>
      </Patient>
    </resource>
    <request>
      <method value="POST"/>
      <url value="Patient"/>
    </request>
  </entry>
  <entry>
    <fullUrl value="urn:uuid:c33f2116-6a95-11ec-0000-020000000000"/>
    <resource>
      <PractitionerRole>
        <meta>
          <profile value="http://nictiz.nl/fhir/StructureDefinition/nl-core-HealthProfessional-PractitionerRole"/>
        </meta>
        <text>
          <status value="extensions"/>
          <div xmlns="http://www.w3.org/1999/xhtml">
            <table>
              <caption>Zorgverlenerrol. </caption>
              <tbody>
                <tr>
                  <th>Zorgverlener</th>
                  <td>
                    <div>Healthcare professional (person), Peter van Pulver</div>
                    <div>Healthcare provider (organization), Huisartsenpraktijk Pulver &amp; Partners</div>
                  </td>
                </tr>
                <tr>
                  <th>Specialisme</th>
                  <td>
                    <span title="Huisartsen, niet nader gespecificeerd (0100 - AGB-medisch specialisme)">Huisartsen, niet nader gespecificeerd</span>
                  </td>
                </tr>
              </tbody>
            </table>
          </div>
        </text>
        <practitioner>
          <reference value="urn:uuid:c33f2134-6a95-11ec-0000-020000000000"/>
          <type value="Practitioner"/>
          <display value="Healthcare professional (person), Peter van Pulver"/>
        </practitioner>
        <organization>
          <reference value="urn:uuid:c33f22ba-6a95-11ec-0000-020000000000"/>
          <type value="Organization"/>
          <display value="Healthcare provider (organization), Huisartsenpraktijk Pulver &amp; Partners"/>
        </organization>
        <specialty>
          <coding>
            <system value="urn:oid:2.16.840.1.113883.2.4.6.7"/>
            <version value="2020-10-23T00:00:00"/>
            <code value="0100"/>
            <display value="Huisartsen, niet nader gespecificeerd"/>
          </coding>
        </specialty>
      </PractitionerRole>
    </resource>
    <request>
      <method value="POST"/>
      <url value="PractitionerRole"/>
    </request>
  </entry>
  <entry>
    <fullUrl value="urn:uuid:c33f2134-6a95-11ec-0000-020000000000"/>
    <resource>
      <Practitioner>
        <meta>
          <profile value="http://nictiz.nl/fhir/StructureDefinition/nl-core-HealthProfessional-Practitioner"/>
        </meta>
        <text>
          <status value="extensions"/>
          <div xmlns="http://www.w3.org/1999/xhtml">
            <div>Id 000001111 (UZI-NR-PERS), Peter van Pulver</div>
          </div>
        </text>
        <identifier>
          <system value="http://fhir.nl/fhir/NamingSystem/uzi-nr-pers"/>
          <value value="000001111"/>
        </identifier>
        <name>
          <use value="official"/>
          <text value="Peter van Pulver"/>
          <family value="van Pulver">
            <extension url="http://hl7.org/fhir/StructureDefinition/humanname-own-prefix">
              <valueString value="van"/>
            </extension>
            <extension url="http://hl7.org/fhir/StructureDefinition/humanname-own-name">
              <valueString value="Pulver"/>
            </extension>
          </family>
          <given value="Peter">
            <extension url="http://hl7.org/fhir/StructureDefinition/iso21090-EN-qualifier">
              <valueCode value="BR"/>
            </extension>
          </given>
        </name>
      </Practitioner>
    </resource>
    <request>
      <method value="POST"/>
      <url value="Practitioner"/>
    </request>
  </entry>
  <entry>
    <fullUrl value="urn:uuid:c33f22ba-6a95-11ec-0000-020000000000"/>
    <resource>
      <Organization>
        <meta>
          <profile value="http://nictiz.nl/fhir/StructureDefinition/nl-core-HealthcareProvider-Organization"/>
        </meta>
        <text>
          <status value="extensions"/>
          <div xmlns="http://www.w3.org/1999/xhtml">
            <table>
              <caption>Organisatie. Id: 00001111 (URA)</caption>
              <tbody>
                <tr>
                  <th>Naam</th>
                  <td>Huisartsenpraktijk Pulver &amp; Partners</td>
                </tr>
                <tr>
                  <th>Adres</th>
                  <td>Dorpsstraat 1, 1234AA Ons Dorp (Werk)</td>
                </tr>
              </tbody>
            </table>
          </div>
        </text>
        <identifier>
          <system value="http://fhir.nl/fhir/NamingSystem/ura"/>
          <value value="00001111"/>
        </identifier>
        <name value="Huisartsenpraktijk Pulver &amp; Partners"/>
        <address>
          <extension url="http://nictiz.nl/fhir/StructureDefinition/ext-AddressInformation.AddressType">
            <valueCodeableConcept>
              <coding>
                <system value="http://terminology.hl7.org/CodeSystem/v3-AddressUse"/>
                <code value="WP"/>
                <display value="Werkadres"/>
              </coding>
            </valueCodeableConcept>
          </extension>
          <use value="work"/>
          <line value="Dorpsstraat 1">
            <extension url="http://hl7.org/fhir/StructureDefinition/iso21090-ADXP-streetName">
              <valueString value="Dorpsstraat"/>
            </extension>
            <extension url="http://hl7.org/fhir/StructureDefinition/iso21090-ADXP-houseNumber">
              <valueString value="1"/>
            </extension>
          </line>
          <city value="Ons Dorp"/>
          <postalCode value="1234AA"/>
        </address>
      </Organization>
    </resource>
    <request>
      <method value="POST"/>
      <url value="Organization"/>
    </request>
  </entry>
  <entry>
    <fullUrl value="urn:uuid:c33f2206-6a95-11ec-0000-020000000000"/>
    <resource>
      <Medication>
        <meta>
          <profile value="http://nictiz.nl/fhir/StructureDefinition/nl-core-PharmaceuticalProduct"/>
        </meta>
        <text>
          <status value="extensions"/>
          <div xmlns="http://www.w3.org/1999/xhtml">
            <table>
              <tbody>
                <tr>
                  <th>Code</th>
                  <td>
                    <span title="IBUPROFEN PCH TABLET 600MG (641898 - G-Standaard HPK)">IBUPROFEN PCH TABLET 600MG</span>
                  </td>
                </tr>
              </tbody>
            </table>
          </div>
        </text>
        <code>
          <coding>
            <system value="urn:oid:2.16.840.1.113883.2.4.4.7"/>
            <code value="641898"/>
            <display value="IBUPROFEN PCH TABLET 600MG"/>
            <userSelected value="true"/>
          </coding>
          <coding>
            <system value="urn:oid:2.16.840.1.113883.2.4.4.10"/>
            <code value="17469"/>
            <display value="IBUPROFEN TABLET 600MG"/>
          </coding>
          <coding>
            <system value="urn:oid:2.16.840.1.113883.2.4.4.1"/>
            <code value="42080"/>
            <display value="IBUPROFEN TABLET 600MG"/>
          </coding>
          <text value="IBUPROFEN PCH TABLET 600MG"/>
        </code>
      </Medication>
    </resource>
    <request>
      <method value="POST"/>
      <url value="Medication"/>
    </request>
  </entry>
  <entry>
    <fullUrl value="urn:uuid:c33f2224-6a95-11ec-0000-020000000000"/>
    <resource>
      <Medication>
        <meta>
          <profile value="http://nictiz.nl/fhir/StructureDefinition/nl-core-PharmaceuticalProduct"/>
        </meta>
        <text>
          <status value="extensions"/>
          <div xmlns="http://www.w3.org/1999/xhtml">
            <table>
              <tbody>
                <tr>
                  <th>Code</th>
                  <td>
                    <span title="XPRAEP SIROOP 2MG/ML (101079 - G-Standaard HPK)">XPRAEP SIROOP 2MG/ML</span>
                  </td>
                </tr>
              </tbody>
            </table>
          </div>
        </text>
        <code>
          <coding>
            <system value="urn:oid:2.16.840.1.113883.2.4.4.7"/>
            <code value="101079"/>
            <display value="XPRAEP SIROOP 2MG/ML"/>
            <userSelected value="true"/>
          </coding>
          <coding>
            <system value="urn:oid:2.16.840.1.113883.2.4.4.10"/>
            <code value="3379"/>
            <display value="SENNOSIDEN A+B 2MG/ML"/>
          </coding>
          <coding>
            <system value="urn:oid:2.16.840.1.113883.2.4.4.1"/>
            <code value="10960"/>
            <display value="SENNOSIDEN A+B 2MG/ML"/>
          </coding>
          <text value="XPRAEP SIROOP 2MG/ML"/>
        </code>
      </Medication>
    </resource>
    <request>
      <method value="POST"/>
      <url value="Medication"/>
    </request>
  </entry>
  <entry>
    <fullUrl value="urn:uuid:c33f2242-6a95-11ec-0000-020000000000"/>
    <resource>
      <Medication>
        <meta>
          <profile value="http://nictiz.nl/fhir/StructureDefinition/nl-core-PharmaceuticalProduct"/>
        </meta>
        <text>
          <status value="extensions"/>
          <div xmlns="http://www.w3.org/1999/xhtml">
            <table>
              <tbody>
                <tr>
                  <th>Code</th>
                  <td>
                    <span title="NUTRIDRINK BANAANSMAAK (690090 - G-Standaard HPK)">NUTRIDRINK BANAANSMAAK</span>
                  </td>
                </tr>
              </tbody>
            </table>
          </div>
        </text>
        <code>
          <coding>
            <system value="urn:oid:2.16.840.1.113883.2.4.4.7"/>
            <code value="690090"/>
            <display value="NUTRIDRINK BANAANSMAAK"/>
            <userSelected value="true"/>
          </coding>
          <coding>
            <system value="urn:oid:2.16.840.1.113883.2.4.4.10"/>
            <code value="88749"/>
            <display value="VLOEIBARE VOEDING MET O.A. VITAMINE K"/>
          </coding>
          <coding>
            <system value="urn:oid:2.16.840.1.113883.2.4.4.1"/>
            <code value="130575"/>
            <display value="VLOEIBARE VOEDING MET O.A. VITAMINE K"/>
          </coding>
          <text value="NUTRIDRINK BANAANSMAAK"/>
        </code>
      </Medication>
    </resource>
    <request>
      <method value="POST"/>
      <url value="Medication"/>
    </request>
  </entry>
  <entry>
    <fullUrl value="urn:uuid:c33f2260-6a95-11ec-0000-020000000000"/>
    <resource>
      <Medication>
        <meta>
          <profile value="http://nictiz.nl/fhir/StructureDefinition/nl-core-PharmaceuticalProduct"/>
        </meta>
        <text>
          <status value="extensions"/>
          <div xmlns="http://www.w3.org/1999/xhtml">
            <table>
              <tbody>
                <tr>
                  <th>Code</th>
                  <td>
                    <span title="ACETYLSALICYLZUUR TABLET 100MG (3956 - G-Standaard PRK)">ACETYLSALICYLZUUR TABLET 100MG</span>
                  </td>
                </tr>
              </tbody>
            </table>
          </div>
        </text>
        <code>
          <coding>
            <system value="urn:oid:2.16.840.1.113883.2.4.4.10"/>
            <code value="3956"/>
            <display value="ACETYLSALICYLZUUR TABLET 100MG"/>
            <userSelected value="true"/>
          </coding>
          <coding>
            <system value="urn:oid:2.16.840.1.113883.2.4.4.1"/>
            <code value="12548"/>
            <display value="ACETYLSALICYLZUUR TABLET 100MG"/>
          </coding>
          <text value="ACETYLSALICYLZUUR TABLET 100MG"/>
        </code>
      </Medication>
    </resource>
    <request>
      <method value="POST"/>
      <url value="Medication"/>
    </request>
  </entry>
  <entry>
    <fullUrl value="urn:uuid:c33f227e-6a95-11ec-0000-020000000000"/>
    <resource>
      <Medication>
        <meta>
          <profile value="http://nictiz.nl/fhir/StructureDefinition/nl-core-PharmaceuticalProduct"/>
        </meta>
        <text>
          <status value="extensions"/>
          <div xmlns="http://www.w3.org/1999/xhtml">
            <table>
              <tbody>
                <tr>
                  <th>Code</th>
                  <td>
                    <span title="PARACETAMOL SANDOZ TABLET 500MG (665800 - G-Standaard HPK)">PARACETAMOL SANDOZ TABLET 500MG</span>
                  </td>
                </tr>
              </tbody>
            </table>
          </div>
        </text>
        <code>
          <coding>
            <system value="urn:oid:2.16.840.1.113883.2.4.4.7"/>
            <code value="665800"/>
            <display value="PARACETAMOL SANDOZ TABLET 500MG"/>
            <userSelected value="true"/>
          </coding>
          <coding>
            <system value="urn:oid:2.16.840.1.113883.2.4.4.10"/>
            <code value="67903"/>
            <display value="PARACETAMOL 500MG TABLET"/>
          </coding>
          <coding>
            <system value="urn:oid:2.16.840.1.113883.2.4.4.1"/>
            <code value="2194"/>
            <display value="PARACETAMOL 500MG TABLET"/>
          </coding>
          <text value="PARACETAMOL SANDOZ TABLET 500MG"/>
        </code>
      </Medication>
    </resource>
    <request>
      <method value="POST"/>
      <url value="Medication"/>
    </request>
  </entry>
  <entry>
    <fullUrl value="urn:uuid:c33f229c-6a95-11ec-0000-020000000000"/>
    <resource>
      <Medication>
        <meta>
          <profile value="http://nictiz.nl/fhir/StructureDefinition/nl-core-PharmaceuticalProduct"/>
        </meta>
        <text>
          <status value="extensions"/>
          <div xmlns="http://www.w3.org/1999/xhtml">
            <table>
              <tbody>
                <tr>
                  <th>Code</th>
                  <td>
                    <span title="OXAZEPAM TABLET 10MG (353 - G-Standaard PRK)">OXAZEPAM TABLET 10MG</span>
                  </td>
                </tr>
              </tbody>
            </table>
          </div>
        </text>
        <code>
          <coding>
            <system value="urn:oid:2.16.840.1.113883.2.4.4.10"/>
            <code value="353"/>
            <display value="OXAZEPAM TABLET 10MG"/>
            <userSelected value="true"/>
          </coding>
          <coding>
            <system value="urn:oid:2.16.840.1.113883.2.4.4.1"/>
            <code value="1023"/>
            <display value="OXAZEPAM TABLET 10MG"/>
          </coding>
          <text value="OXAZEPAM TABLET 10MG"/>
        </code>
      </Medication>
    </resource>
    <request>
      <method value="POST"/>
      <url value="Medication"/>
    </request>
  </entry>
</Bundle>
