{
  "resourceType": "Bundle",
  "id": "mg-mp-mg-tst-MGB-Scenarioset0-v20",
  "type": "transaction",
  "entry": [
    {
      "fullUrl": "urn:uuid:c33f1fe0-6a95-11ec-0000-020000000000",
      "resource": {
        "resourceType": "MedicationStatement",
        "id": "mp-MedUse2-mp9-MBH200QA1MGB",
        "meta": {
          "profile": [
            "http://nictiz.nl/fhir/StructureDefinition/mp-MedicationUse2"
          ]
        },
        "extension": [
          {
            "url": "http://nictiz.nl/fhir/StructureDefinition/ext-RenderedDosageInstruction",
            "valueString": "Vanaf T - 20 dagen, tot en met T + 9 dagen, 2 maal per dag 1 stuk, oraal"
          },
          {
            "url": "http://nictiz.nl/fhir/StructureDefinition/ext-MedicationUse2.Prescriber",
            "valueReference": {
              "reference": "urn:uuid:c33f2148-6a95-11ec-0000-020000000000",
              "type": "PractitionerRole",
              "display": "Healthcare professional (role), Peter van Pulver, Huisartsen, niet nader gespecificeerd"
            }
          },
          {
            "url": "http://nictiz.nl/fhir/StructureDefinition/ext-AsAgreedIndicator",
            "valueBoolean": true
          },
          {
            "url": "http://nictiz.nl/fhir/StructureDefinition/ext-PharmaceuticalTreatment.Identifier",
            "valueIdentifier": {
              "system": "urn:oid:2.16.840.1.113883.2.4.3.11.999.77.1.1",
              "value": "MBH_200_QA1"
            }
          },
          {
            "url": "http://nictiz.nl/fhir/StructureDefinition/ext-MedicationUse2.Author",
            "valueReference": {
              "reference": "urn:uuid:c33f1fc2-6a95-11ec-0000-020000000000",
              "type": "Patient",
              "display": "Patient, B. XXX_Blik"
            }
          }
        ],
        "identifier": [
          {
            "system": "urn:oid:2.16.840.1.113883.2.4.3.11.999.77.6.1",
            "value": "MBH_200_QA1_MGB"
          }
        ],
        "status": "active",
        "category": {
          "coding": [
            {
              "system": "http://snomed.info/sct",
              "code": "422979000",
              "display": "bevinding betreffende gedrag met betrekking tot medicatieregime"
            }
          ]
        },
        "medicationReference": {
          "reference": "urn:uuid:c33f2094-6a95-11ec-0000-020000000000",
          "type": "Medication",
          "display": "IBUPROFEN PCH TABLET 600MG"
        },
        "subject": {
          "reference": "urn:uuid:c33f1fc2-6a95-11ec-0000-020000000000",
          "type": "Patient",
          "display": "Patient, B. XXX_Blik"
        },
        "effectivePeriod": {
          "start": "${DATE, T, D, -20}T00:00:00+02:00",
          "end": "${DATE, T, D, +9}T23:59:59+02:00"
        },
        "dateAsserted": "${DATE, T, D, -1}T10:04:23+02:00",
        "derivedFrom": [
          {
            "extension": [
              {
                "url": "http://nictiz.nl/fhir/StructureDefinition/ext-ResourceCategory",
                "valueCodeableConcept": {
                  "coding": [
                    {
                      "system": "http://snomed.info/sct",
                      "code": "422037009",
                      "display": "toedieningsafspraak"
                    }
                  ]
                }
              }
            ],
            "identifier": {
              "system": "urn:oid:2.16.840.1.113883.2.4.3.11.999.77.422037009.1",
              "value": "MBH_200_QA1_TA"
            },
            "display": "relatie naar toedieningsafspraak"
          }
        ],
        "dosage": [
          {
            "timing": {
              "repeat": {
                "frequency": 2,
                "period": 1,
                "periodUnit": "d"
              }
            },
            "route": {
              "coding": [
                {
                  "system": "urn:oid:2.16.840.1.113883.2.4.4.9",
                  "code": "9",
                  "display": "oraal"
                }
              ]
            },
            "doseAndRate": [
              {
                "doseQuantity": {
                  "extension": [
                    {
                      "url": "http://hl7.org/fhir/StructureDefinition/iso21090-PQ-translation",
                      "valueQuantity": {
                        "value": 1,
                        "unit": "stuk",
                        "system": "urn:oid:2.16.840.1.113883.2.4.4.1.900.2",
                        "code": "245"
                      }
                    }
                  ],
                  "value": 1,
                  "unit": "stuk",
                  "system": "http://unitsofmeasure.org",
                  "code": "1"
                }
              }
            ]
          }
        ]
      },
      "request": {
        "method": "POST",
        "url": "MedicationStatement"
      }
    },
    {
      "fullUrl": "urn:uuid:c33f1ffe-6a95-11ec-0000-020000000000",
      "resource": {
        "resourceType": "MedicationStatement",
        "id": "mp-MedUse2-mp9-MBH200QA2MGB",
        "meta": {
          "profile": [
            "http://nictiz.nl/fhir/StructureDefinition/mp-MedicationUse2"
          ]
        },
        "extension": [
          {
            "url": "http://nictiz.nl/fhir/StructureDefinition/ext-RenderedDosageInstruction",
            "valueString": "Vanaf T - 100 dagen, tot en met T - 72 dagen, 1 maal per dag 10 millimeter, oraal"
          },
          {
            "url": "http://nictiz.nl/fhir/StructureDefinition/ext-MedicationUse2.Prescriber",
            "valueReference": {
              "reference": "urn:uuid:c33f2148-6a95-11ec-0000-020000000000",
              "type": "PractitionerRole",
              "display": "Healthcare professional (role), Peter van Pulver, Huisartsen, niet nader gespecificeerd"
            }
          },
          {
            "url": "http://nictiz.nl/fhir/StructureDefinition/ext-AsAgreedIndicator",
            "valueBoolean": true
          },
          {
            "url": "http://nictiz.nl/fhir/StructureDefinition/ext-PharmaceuticalTreatment.Identifier",
            "valueIdentifier": {
              "system": "urn:oid:2.16.840.1.113883.2.4.3.11.999.77.1.1",
              "value": "MBH_200_QA2"
            }
          },
          {
            "url": "http://nictiz.nl/fhir/StructureDefinition/ext-MedicationUse2.Author",
            "valueReference": {
              "reference": "urn:uuid:c33f1fc2-6a95-11ec-0000-020000000000",
              "type": "Patient",
              "display": "Patient, B. XXX_Blik"
            }
          }
        ],
        "identifier": [
          {
            "system": "urn:oid:2.16.840.1.113883.2.4.3.11.999.77.6.1",
            "value": "MBH_200_QA2_MGB"
          }
        ],
        "status": "active",
        "category": {
          "coding": [
            {
              "system": "http://snomed.info/sct",
              "code": "422979000",
              "display": "bevinding betreffende gedrag met betrekking tot medicatieregime"
            }
          ]
        },
        "medicationReference": {
          "reference": "urn:uuid:c33f20b2-6a95-11ec-0000-020000000000",
          "type": "Medication",
          "display": "XPRAEP SIROOP 2MG/ML"
        },
        "subject": {
          "reference": "urn:uuid:c33f1fc2-6a95-11ec-0000-020000000000",
          "type": "Patient",
          "display": "Patient, B. XXX_Blik"
        },
        "effectivePeriod": {
          "start": "${DATE, T, D, -100}T00:00:00+02:00",
          "end": "${DATE, T, D, -72}T23:59:59+02:00"
        },
        "dateAsserted": "${DATE, T, D, -68}T12:13:55+02:00",
        "derivedFrom": [
          {
            "extension": [
              {
                "url": "http://nictiz.nl/fhir/StructureDefinition/ext-ResourceCategory",
                "valueCodeableConcept": {
                  "coding": [
                    {
                      "system": "http://snomed.info/sct",
                      "code": "422037009",
                      "display": "toedieningsafspraak"
                    }
                  ]
                }
              }
            ],
            "identifier": {
              "system": "urn:oid:2.16.840.1.113883.2.4.3.11.999.77.422037009.1",
              "value": "MBH_200_QA2_TA"
            },
            "display": "relatie naar toedieningsafspraak"
          }
        ],
        "dosage": [
          {
            "timing": {
              "repeat": {
                "frequency": 1,
                "period": 1,
                "periodUnit": "d"
              }
            },
            "route": {
              "coding": [
                {
                  "system": "urn:oid:2.16.840.1.113883.2.4.4.9",
                  "code": "9",
                  "display": "oraal"
                }
              ]
            },
            "doseAndRate": [
              {
                "doseQuantity": {
                  "extension": [
                    {
                      "url": "http://hl7.org/fhir/StructureDefinition/iso21090-PQ-translation",
                      "valueQuantity": {
                        "value": 10,
                        "unit": "millimeter",
                        "system": "urn:oid:2.16.840.1.113883.2.4.4.1.900.2",
                        "code": "233"
                      }
                    }
                  ],
                  "value": 10,
                  "unit": "millimeter",
                  "system": "http://unitsofmeasure.org",
                  "code": "ml"
                }
              }
            ]
          }
        ]
      },
      "request": {
        "method": "POST",
        "url": "MedicationStatement"
      }
    },
    {
      "fullUrl": "urn:uuid:c33f201c-6a95-11ec-0000-020000000000",
      "resource": {
        "resourceType": "MedicationStatement",
        "id": "mp-MedUse2-mp9-MBH200QA3MGB",
        "meta": {
          "profile": [
            "http://nictiz.nl/fhir/StructureDefinition/mp-MedicationUse2"
          ]
        },
        "extension": [
          {
            "url": "http://nictiz.nl/fhir/StructureDefinition/ext-RenderedDosageInstruction",
            "valueString": "Vanaf T - 50 dagen, tot en met T - 11 dagen, 2 maal per dag 50 ml, oraal"
          },
          {
            "url": "http://nictiz.nl/fhir/StructureDefinition/ext-MedicationUse2.Prescriber",
            "valueReference": {
              "reference": "urn:uuid:c33f2148-6a95-11ec-0000-020000000000",
              "type": "PractitionerRole",
              "display": "Healthcare professional (role), Peter van Pulver, Huisartsen, niet nader gespecificeerd"
            }
          },
          {
            "url": "http://nictiz.nl/fhir/StructureDefinition/ext-AsAgreedIndicator",
            "valueBoolean": true
          },
          {
            "url": "http://nictiz.nl/fhir/StructureDefinition/ext-PharmaceuticalTreatment.Identifier",
            "valueIdentifier": {
              "system": "urn:oid:2.16.840.1.113883.2.4.3.11.999.77.1.1",
              "value": "MBH_200_QA3"
            }
          },
          {
            "url": "http://nictiz.nl/fhir/StructureDefinition/ext-MedicationUse2.Author",
            "valueReference": {
              "reference": "urn:uuid:c33f2148-6a95-11ec-0000-020000000000",
              "type": "PractitionerRole",
              "display": "Healthcare professional (role), Peter van Pulver, Huisartsen, niet nader gespecificeerd"
            }
          }
        ],
        "identifier": [
          {
            "system": "urn:oid:2.16.840.1.113883.2.4.3.11.999.77.6.1",
            "value": "MBH_200_QA3_MGB"
          }
        ],
        "status": "active",
        "category": {
          "coding": [
            {
              "system": "http://snomed.info/sct",
              "code": "422979000",
              "display": "bevinding betreffende gedrag met betrekking tot medicatieregime"
            }
          ]
        },
        "medicationReference": {
          "reference": "urn:uuid:c33f20d0-6a95-11ec-0000-020000000000",
          "type": "Medication",
          "display": "NUTRIDRINK BANAANSMAAK"
        },
        "subject": {
          "reference": "urn:uuid:c33f1fc2-6a95-11ec-0000-020000000000",
          "type": "Patient",
          "display": "Patient, B. XXX_Blik"
        },
        "effectivePeriod": {
          "start": "${DATE, T, D, -50}T00:00:00+02:00",
          "end": "${DATE, T, D, -11}T23:59:59+02:00"
        },
        "dateAsserted": "${DATE, T, D, -9}T07:59:59+02:00",
        "derivedFrom": [
          {
            "extension": [
              {
                "url": "http://nictiz.nl/fhir/StructureDefinition/ext-ResourceCategory",
                "valueCodeableConcept": {
                  "coding": [
                    {
                      "system": "http://snomed.info/sct",
                      "code": "33633005",
                      "display": "voorschrijven"
                    }
                  ]
                }
              }
            ],
            "identifier": {
              "system": "urn:oid:2.16.840.1.113883.2.4.3.11.999.77.16076005.1",
              "value": "MBH_200_QA3_MA"
            },
            "display": "relatie naar medicatieafspraak"
          },
          {
            "extension": [
              {
                "url": "http://nictiz.nl/fhir/StructureDefinition/ext-ResourceCategory",
                "valueCodeableConcept": {
                  "coding": [
                    {
                      "system": "http://snomed.info/sct",
                      "code": "422037009",
                      "display": "toedieningsafspraak"
                    }
                  ]
                }
              }
            ],
            "identifier": {
              "system": "urn:oid:2.16.840.1.113883.2.4.3.11.999.77.422037009.1",
              "value": "MBH_200_QA3_TA"
            },
            "display": "relatie naar toedieningsafspraak"
          }
        ],
        "dosage": [
          {
            "timing": {
              "repeat": {
                "frequency": 2,
                "period": 1,
                "periodUnit": "d"
              }
            },
            "route": {
              "coding": [
                {
                  "system": "urn:oid:2.16.840.1.113883.2.4.4.9",
                  "code": "9",
                  "display": "oraal"
                }
              ]
            },
            "doseAndRate": [
              {
                "doseQuantity": {
                  "extension": [
                    {
                      "url": "http://hl7.org/fhir/StructureDefinition/iso21090-PQ-translation",
                      "valueQuantity": {
                        "value": 50,
                        "unit": "milliliter",
                        "system": "urn:oid:2.16.840.1.113883.2.4.4.1.900.2",
                        "code": "233"
                      }
                    }
                  ],
                  "value": 50,
                  "unit": "milliliter",
                  "system": "http://unitsofmeasure.org",
                  "code": "ml"
                }
              }
            ]
          }
        ]
      },
      "request": {
        "method": "POST",
        "url": "MedicationStatement"
      }
    },
    {
      "fullUrl": "urn:uuid:c33f203a-6a95-11ec-0000-020000000000",
      "resource": {
        "resourceType": "MedicationStatement",
        "id": "mp-MedUse2-mp9-MBH200QA4MGB",
        "meta": {
          "profile": [
            "http://nictiz.nl/fhir/StructureDefinition/mp-MedicationUse2"
          ]
        },
        "extension": [
          {
            "url": "http://nictiz.nl/fhir/StructureDefinition/ext-RenderedDosageInstruction",
            "valueString": "Vanaf T - 10 dagen, tot en met T + 19 dagen, 1 maal per dag 1 stuk, oraal"
          },
          {
            "url": "http://nictiz.nl/fhir/StructureDefinition/ext-MedicationUse2.Prescriber",
            "valueReference": {
              "reference": "urn:uuid:c33f2148-6a95-11ec-0000-020000000000",
              "type": "PractitionerRole",
              "display": "Healthcare professional (role), Peter van Pulver, Huisartsen, niet nader gespecificeerd"
            }
          },
          {
            "url": "http://nictiz.nl/fhir/StructureDefinition/ext-AsAgreedIndicator",
            "valueBoolean": true
          },
          {
            "url": "http://nictiz.nl/fhir/StructureDefinition/ext-PharmaceuticalTreatment.Identifier",
            "valueIdentifier": {
              "system": "urn:oid:2.16.840.1.113883.2.4.3.11.999.77.1.1",
              "value": "MBH_200_QA4"
            }
          },
          {
            "url": "http://nictiz.nl/fhir/StructureDefinition/ext-MedicationUse2.Author",
            "valueReference": {
              "reference": "urn:uuid:c33f2148-6a95-11ec-0000-020000000000",
              "type": "PractitionerRole",
              "display": "Healthcare professional (role), Peter van Pulver, Huisartsen, niet nader gespecificeerd"
            }
          }
        ],
        "identifier": [
          {
            "system": "urn:oid:2.16.840.1.113883.2.4.3.11.999.77.6.1",
            "value": "MBH_200_QA4_MGB"
          }
        ],
        "status": "active",
        "category": {
          "coding": [
            {
              "system": "http://snomed.info/sct",
              "code": "422979000",
              "display": "bevinding betreffende gedrag met betrekking tot medicatieregime"
            }
          ]
        },
        "medicationReference": {
          "reference": "urn:uuid:c33f20ee-6a95-11ec-0000-020000000000",
          "type": "Medication",
          "display": "ACETYLSALICYLZUUR TABLET 100MG"
        },
        "subject": {
          "reference": "urn:uuid:c33f1fc2-6a95-11ec-0000-020000000000",
          "type": "Patient",
          "display": "Patient, B. XXX_Blik"
        },
        "effectivePeriod": {
          "start": "${DATE, T, D, -10}T00:00:00+02:00",
          "end": "${DATE, T, D, +19}T23:59:59+02:00"
        },
        "dateAsserted": "${DATE, T, D, -2}T08:12:00+02:00",
        "informationSource": {
          "reference": "urn:uuid:c33f1fc2-6a95-11ec-0000-020000000000",
          "type": "Patient",
          "display": "Patient, B. XXX_Blik"
        },
        "derivedFrom": [
          {
            "extension": [
              {
                "url": "http://nictiz.nl/fhir/StructureDefinition/ext-ResourceCategory",
                "valueCodeableConcept": {
                  "coding": [
                    {
                      "system": "http://snomed.info/sct",
                      "code": "33633005",
                      "display": "voorschrijven"
                    }
                  ]
                }
              }
            ],
            "identifier": {
              "system": "urn:oid:2.16.840.1.113883.2.4.3.11.999.77.16076005.1",
              "value": "MBH_200_QA4_MA"
            },
            "display": "relatie naar medicatieafspraak"
          }
        ],
        "dosage": [
          {
            "timing": {
              "repeat": {
                "frequency": 1,
                "period": 1,
                "periodUnit": "d"
              }
            },
            "route": {
              "coding": [
                {
                  "system": "urn:oid:2.16.840.1.113883.2.4.4.9",
                  "code": "9",
                  "display": "oraal"
                }
              ]
            },
            "doseAndRate": [
              {
                "doseQuantity": {
                  "extension": [
                    {
                      "url": "http://hl7.org/fhir/StructureDefinition/iso21090-PQ-translation",
                      "valueQuantity": {
                        "value": 1,
                        "unit": "stuk",
                        "system": "urn:oid:2.16.840.1.113883.2.4.4.1.900.2",
                        "code": "245"
                      }
                    }
                  ],
                  "value": 1,
                  "unit": "stuk",
                  "system": "http://unitsofmeasure.org",
                  "code": "1"
                }
              }
            ]
          }
        ]
      },
      "request": {
        "method": "POST",
        "url": "MedicationStatement"
      }
    },
    {
      "fullUrl": "urn:uuid:c33f2058-6a95-11ec-0000-020000000000",
      "resource": {
        "resourceType": "MedicationStatement",
        "id": "mp-MedUse2-mp9-MBH200QA5MGB",
        "meta": {
          "profile": [
            "http://nictiz.nl/fhir/StructureDefinition/mp-MedicationUse2"
          ]
        },
        "extension": [
          {
            "url": "http://nictiz.nl/fhir/StructureDefinition/ext-RenderedDosageInstruction",
            "valueString": "Vanaf T - 50 dagen, tot en met T - 44 dagen, 4 maal per dag 2 stuks, oraal"
          },
          {
            "url": "http://nictiz.nl/fhir/StructureDefinition/ext-MedicationUse2.Prescriber",
            "valueReference": {
              "reference": "urn:uuid:c33f2148-6a95-11ec-0000-020000000000",
              "type": "PractitionerRole",
              "display": "Healthcare professional (role), Peter van Pulver, Huisartsen, niet nader gespecificeerd"
            }
          },
          {
            "url": "http://nictiz.nl/fhir/StructureDefinition/ext-AsAgreedIndicator",
            "valueBoolean": true
          },
          {
            "url": "http://nictiz.nl/fhir/StructureDefinition/ext-PharmaceuticalTreatment.Identifier",
            "valueIdentifier": {
              "system": "urn:oid:2.16.840.1.113883.2.4.3.11.999.77.1.1",
              "value": "MBH_200_QA5"
            }
          },
          {
            "url": "http://nictiz.nl/fhir/StructureDefinition/ext-MedicationUse2.Author",
            "valueReference": {
              "reference": "urn:uuid:c33f2148-6a95-11ec-0000-020000000000",
              "type": "PractitionerRole",
              "display": "Healthcare professional (role), Peter van Pulver, Huisartsen, niet nader gespecificeerd"
            }
          }
        ],
        "identifier": [
          {
            "system": "urn:oid:2.16.840.1.113883.2.4.3.11.999.77.6.1",
            "value": "MBH_200_QA5_MGB"
          }
        ],
        "status": "active",
        "category": {
          "coding": [
            {
              "system": "http://snomed.info/sct",
              "code": "422979000",
              "display": "bevinding betreffende gedrag met betrekking tot medicatieregime"
            }
          ]
        },
        "medicationReference": {
          "reference": "urn:uuid:c33f210c-6a95-11ec-0000-020000000000",
          "type": "Medication",
          "display": "PARACETAMOL SANDOZ TABLET 500MG"
        },
        "subject": {
          "reference": "urn:uuid:c33f1fc2-6a95-11ec-0000-020000000000",
          "type": "Patient",
          "display": "Patient, B. XXX_Blik"
        },
        "effectivePeriod": {
          "start": "${DATE, T, D, -50}T00:00:00+02:00",
          "end": "${DATE, T, D, -44}T23:59:59+02:00"
        },
        "dateAsserted": "${DATE, T, D, -43}T08:00:00+02:00",
        "informationSource": {
          "reference": "urn:uuid:c33f1fc2-6a95-11ec-0000-020000000000",
          "type": "Patient",
          "display": "Patient, B. XXX_Blik"
        },
        "derivedFrom": [
          {
            "extension": [
              {
                "url": "http://nictiz.nl/fhir/StructureDefinition/ext-ResourceCategory",
                "valueCodeableConcept": {
                  "coding": [
                    {
                      "system": "http://snomed.info/sct",
                      "code": "422037009",
                      "display": "toedieningsafspraak"
                    }
                  ]
                }
              }
            ],
            "identifier": {
              "system": "urn:oid:2.16.840.1.113883.2.4.3.11.999.77.422037009.1",
              "value": "MBH_200_QA5_TA"
            },
            "display": "relatie naar toedieningsafspraak"
          }
        ],
        "dosage": [
          {
            "timing": {
              "repeat": {
                "frequency": 4,
                "period": 1,
                "periodUnit": "d"
              }
            },
            "route": {
              "coding": [
                {
                  "system": "urn:oid:2.16.840.1.113883.2.4.4.9",
                  "code": "9",
                  "display": "oraal"
                }
              ]
            },
            "doseAndRate": [
              {
                "doseQuantity": {
                  "extension": [
                    {
                      "url": "http://hl7.org/fhir/StructureDefinition/iso21090-PQ-translation",
                      "valueQuantity": {
                        "value": 2,
                        "unit": "stuk",
                        "system": "urn:oid:2.16.840.1.113883.2.4.4.1.900.2",
                        "code": "245"
                      }
                    }
                  ],
                  "value": 2,
                  "unit": "stuk",
                  "system": "http://unitsofmeasure.org",
                  "code": "1"
                }
              }
            ]
          }
        ]
      },
      "request": {
        "method": "POST",
        "url": "MedicationStatement"
      }
    },
    {
      "fullUrl": "urn:uuid:c33f2076-6a95-11ec-0000-020000000000",
      "resource": {
        "resourceType": "MedicationStatement",
        "id": "mp-MedUse2-mp9-MBH200QA6MGB",
        "meta": {
          "profile": [
            "http://nictiz.nl/fhir/StructureDefinition/mp-MedicationUse2"
          ]
        },
        "extension": [
          {
            "url": "http://nictiz.nl/fhir/StructureDefinition/ext-RenderedDosageInstruction",
            "valueString": "Vanaf T - 5 dagen, tot en met T + 1 dag, 3 maal per dag 1 stuk, oraal"
          },
          {
            "url": "http://nictiz.nl/fhir/StructureDefinition/ext-MedicationUse2.Prescriber",
            "valueReference": {
              "reference": "urn:uuid:c33f2148-6a95-11ec-0000-020000000000",
              "type": "PractitionerRole",
              "display": "Healthcare professional (role), Peter van Pulver, Huisartsen, niet nader gespecificeerd"
            }
          },
          {
            "url": "http://nictiz.nl/fhir/StructureDefinition/ext-AsAgreedIndicator",
            "valueBoolean": true
          },
          {
            "url": "http://nictiz.nl/fhir/StructureDefinition/ext-PharmaceuticalTreatment.Identifier",
            "valueIdentifier": {
              "system": "urn:oid:2.16.840.1.113883.2.4.3.11.999.77.1.1",
              "value": "MBH_200_QA6"
            }
          },
          {
            "url": "http://nictiz.nl/fhir/StructureDefinition/ext-MedicationUse2.Author",
            "valueReference": {
              "reference": "urn:uuid:c33f2148-6a95-11ec-0000-020000000000",
              "type": "PractitionerRole",
              "display": "Healthcare professional (role), Peter van Pulver, Huisartsen, niet nader gespecificeerd"
            }
          }
        ],
        "identifier": [
          {
            "system": "urn:oid:2.16.840.1.113883.2.4.3.11.999.77.6.1",
            "value": "MBH_200_QA6_MGB"
          }
        ],
        "status": "active",
        "category": {
          "coding": [
            {
              "system": "http://snomed.info/sct",
              "code": "422979000",
              "display": "bevinding betreffende gedrag met betrekking tot medicatieregime"
            }
          ]
        },
        "medicationReference": {
          "reference": "urn:uuid:c33f212a-6a95-11ec-0000-020000000000",
          "type": "Medication",
          "display": "OXAZEPAM TABLET 10MG"
        },
        "subject": {
          "reference": "urn:uuid:c33f1fc2-6a95-11ec-0000-020000000000",
          "type": "Patient",
          "display": "Patient, B. XXX_Blik"
        },
        "effectivePeriod": {
          "start": "${DATE, T, D, -5}T00:00:00+02:00",
          "end": "${DATE, T, D, +1}T23:59:59+02:00"
        },
        "dateAsserted": "${DATE, T, D, -2}T08:59:59+02:00",
        "informationSource": {
          "reference": "urn:uuid:c33f1fc2-6a95-11ec-0000-020000000000",
          "type": "Patient",
          "display": "Patient, B. XXX_Blik"
        },
        "derivedFrom": [
          {
            "extension": [
              {
                "url": "http://nictiz.nl/fhir/StructureDefinition/ext-ResourceCategory",
                "valueCodeableConcept": {
                  "coding": [
                    {
                      "system": "http://snomed.info/sct",
                      "code": "33633005",
                      "display": "voorschrijven"
                    }
                  ]
                }
              }
            ],
            "identifier": {
              "system": "urn:oid:2.16.840.1.113883.2.4.3.11.999.77.16076005.1",
              "value": "MBH_200_QA6_MA"
            },
            "display": "relatie naar medicatieafspraak"
          }
        ],
        "dosage": [
          {
            "timing": {
              "repeat": {
                "frequency": 3,
                "period": 1,
                "periodUnit": "d"
              }
            },
            "route": {
              "coding": [
                {
                  "system": "urn:oid:2.16.840.1.113883.2.4.4.9",
                  "code": "9",
                  "display": "oraal"
                }
              ]
            },
            "doseAndRate": [
              {
                "doseQuantity": {
                  "extension": [
                    {
                      "url": "http://hl7.org/fhir/StructureDefinition/iso21090-PQ-translation",
                      "valueQuantity": {
                        "value": 1,
                        "unit": "stuk",
                        "system": "urn:oid:2.16.840.1.113883.2.4.4.1.900.2",
                        "code": "245"
                      }
                    }
                  ],
                  "value": 1,
                  "unit": "stuk",
                  "system": "http://unitsofmeasure.org",
                  "code": "1"
                }
              }
            ]
          }
        ]
      },
      "request": {
        "method": "POST",
        "url": "MedicationStatement"
      }
    },
    {
      "fullUrl": "urn:uuid:c33f1fc2-6a95-11ec-0000-020000000000",
      "resource": {
        "resourceType": "Patient",
        "id": "nl-core-Patient-mp9-B-XXX-Blik",
        "meta": {
          "profile": [
            "http://nictiz.nl/fhir/StructureDefinition/nl-core-Patient"
          ]
        },
        "identifier": [
          {
            "system": "http://fhir.nl/fhir/NamingSystem/bsn",
            "value": "999900389"
          }
        ],
        "name": [
          {
            "extension": [
              {
                "url": "http://hl7.org/fhir/StructureDefinition/humanname-assembly-order",
                "valueCode": "NL1"
              }
            ],
            "use": "official",
            "text": "B. XXX_Blik",
            "family": "XXX_Blik",
            "_family": {
              "extension": [
                {
                  "url": "http://hl7.org/fhir/StructureDefinition/humanname-own-name",
                  "valueString": "XXX_Blik"
                }
              ]
            },
            "given": [
              "B."
            ],
            "_given": [
              {
                "extension": [
                  {
                    "url": "http://hl7.org/fhir/StructureDefinition/iso21090-EN-qualifier",
                    "valueCode": "IN"
                  }
                ]
              }
            ]
          }
        ],
        "gender": "female",
        "_gender": {
          "extension": [
            {
              "url": "http://nictiz.nl/fhir/StructureDefinition/ext-CodeSpecification",
              "valueCodeableConcept": {
                "coding": [
                  {
                    "system": "http://terminology.hl7.org/CodeSystem/v3-AdministrativeGender",
                    "code": "F",
                    "display": "Vrouw"
                  }
                ]
              }
            }
          ]
        },
        "birthDate": "1963-10-13"
      },
      "request": {
        "method": "POST",
        "url": "Patient"
      }
    },
    {
      "fullUrl": "urn:uuid:c33f2148-6a95-11ec-0000-020000000000",
      "resource": {
        "resourceType": "PractitionerRole",
        "id": "nl-core-HPrf-PracRol-mp9-000001111-0100-00001111",
        "meta": {
          "profile": [
            "http://nictiz.nl/fhir/StructureDefinition/nl-core-HealthProfessional-PractitionerRole"
          ]
        },
        "practitioner": {
          "reference": "urn:uuid:c33f2166-6a95-11ec-0000-020000000000",
          "type": "Practitioner",
          "display": "Healthcare professional (person), Peter van Pulver"
        },
        "organization": {
          "reference": "urn:uuid:c33f2184-6a95-11ec-0000-020000000000",
          "type": "Organization",
          "display": "Healthcare provider (organization), Huisartsenpraktijk Pulver & Partners"
        },
        "specialty": [
          {
            "coding": [
              {
                "system": "urn:oid:2.16.840.1.113883.2.4.6.7",
                "version": "2020-10-23T00:00:00",
                "code": "0100",
                "display": "Huisartsen, niet nader gespecificeerd"
              }
            ]
          }
        ]
      },
      "request": {
        "method": "POST",
        "url": "PractitionerRole"
      }
    },
    {
      "fullUrl": "urn:uuid:c33f2166-6a95-11ec-0000-020000000000",
      "resource": {
        "resourceType": "Practitioner",
        "id": "nl-core-HPrf-Prac-mp9-2165281100731-000001111",
        "meta": {
          "profile": [
            "http://nictiz.nl/fhir/StructureDefinition/nl-core-HealthProfessional-Practitioner"
          ]
        },
        "identifier": [
          {
            "system": "http://fhir.nl/fhir/NamingSystem/uzi-nr-pers",
            "value": "000001111"
          }
        ],
        "name": [
          {
            "use": "official",
            "text": "Peter van Pulver",
            "family": "van Pulver",
            "_family": {
              "extension": [
                {
                  "url": "http://hl7.org/fhir/StructureDefinition/humanname-own-prefix",
                  "valueString": "van"
                },
                {
                  "url": "http://hl7.org/fhir/StructureDefinition/humanname-own-name",
                  "valueString": "Pulver"
                }
              ]
            },
            "given": [
              "Peter"
            ],
            "_given": [
              {
                "extension": [
                  {
                    "url": "http://hl7.org/fhir/StructureDefinition/iso21090-EN-qualifier",
                    "valueCode": "BR"
                  }
                ]
              }
            ]
          }
        ]
      },
      "request": {
        "method": "POST",
        "url": "Practitioner"
      }
    },
    {
      "fullUrl": "urn:uuid:c33f2184-6a95-11ec-0000-020000000000",
      "resource": {
        "resourceType": "Organization",
        "id": "nl-core-HPrv-Org-mp9-2165281100733-00001111",
        "meta": {
          "profile": [
            "http://nictiz.nl/fhir/StructureDefinition/nl-core-HealthcareProvider-Organization"
          ]
        },
        "identifier": [
          {
            "system": "http://fhir.nl/fhir/NamingSystem/ura",
            "value": "00001111"
          }
        ],
        "name": "Huisartsenpraktijk Pulver & Partners",
        "address": [
          {
            "extension": [
              {
                "url": "http://nictiz.nl/fhir/StructureDefinition/ext-AddressInformation.AddressType",
                "valueCodeableConcept": {
                  "coding": [
                    {
                      "system": "http://terminology.hl7.org/CodeSystem/v3-AddressUse",
                      "code": "WP",
                      "display": "Werkadres"
                    }
                  ]
                }
              }
            ],
            "use": "work",
            "line": [
              "Dorpsstraat 1"
            ],
            "_line": [
              {
                "extension": [
                  {
                    "url": "http://hl7.org/fhir/StructureDefinition/iso21090-ADXP-streetName",
                    "valueString": "Dorpsstraat"
                  },
                  {
                    "url": "http://hl7.org/fhir/StructureDefinition/iso21090-ADXP-houseNumber",
                    "valueString": "1"
                  }
                ]
              }
            ],
            "city": "Ons Dorp",
            "postalCode": "1234AA"
          }
        ]
      },
      "request": {
        "method": "POST",
        "url": "Organization"
      }
    },
    {
      "fullUrl": "urn:uuid:c33f2094-6a95-11ec-0000-020000000000",
      "resource": {
        "resourceType": "Medication",
        "id": "nl-core-PhPrd-mp9-21684011138832447-641898",
        "meta": {
          "profile": [
            "http://nictiz.nl/fhir/StructureDefinition/nl-core-PharmaceuticalProduct"
          ]
        },
        "code": {
          "coding": [
            {
              "system": "urn:oid:2.16.840.1.113883.2.4.4.7",
              "code": "641898",
              "display": "IBUPROFEN PCH TABLET 600MG",
              "userSelected": true
            },
            {
              "system": "urn:oid:2.16.840.1.113883.2.4.4.10",
              "code": "17469",
              "display": "IBUPROFEN TABLET 600MG"
            },
            {
              "system": "urn:oid:2.16.840.1.113883.2.4.4.1",
              "code": "42080",
              "display": "IBUPROFEN TABLET 600MG"
            }
          ],
          "text": "IBUPROFEN PCH TABLET 600MG"
        }
      },
      "request": {
        "method": "POST",
        "url": "Medication"
      }
    },
    {
      "fullUrl": "urn:uuid:c33f20b2-6a95-11ec-0000-020000000000",
      "resource": {
        "resourceType": "Medication",
        "id": "nl-core-PhPrd-mp9-21684011138832447-101079",
        "meta": {
          "profile": [
            "http://nictiz.nl/fhir/StructureDefinition/nl-core-PharmaceuticalProduct"
          ]
        },
        "code": {
          "coding": [
            {
              "system": "urn:oid:2.16.840.1.113883.2.4.4.7",
              "code": "101079",
              "display": "XPRAEP SIROOP 2MG/ML",
              "userSelected": true
            },
            {
              "system": "urn:oid:2.16.840.1.113883.2.4.4.10",
              "code": "3379",
              "display": "SENNOSIDEN A+B 2MG/ML"
            },
            {
              "system": "urn:oid:2.16.840.1.113883.2.4.4.1",
              "code": "10960",
              "display": "SENNOSIDEN A+B 2MG/ML"
            }
          ],
          "text": "XPRAEP SIROOP 2MG/ML"
        }
      },
      "request": {
        "method": "POST",
        "url": "Medication"
      }
    },
    {
      "fullUrl": "urn:uuid:c33f20d0-6a95-11ec-0000-020000000000",
      "resource": {
        "resourceType": "Medication",
        "id": "nl-core-PhPrd-mp9-21684011138832447-690090",
        "meta": {
          "profile": [
            "http://nictiz.nl/fhir/StructureDefinition/nl-core-PharmaceuticalProduct"
          ]
        },
        "code": {
          "coding": [
            {
              "system": "urn:oid:2.16.840.1.113883.2.4.4.7",
              "code": "690090",
              "display": "NUTRIDRINK BANAANSMAAK",
              "userSelected": true
            },
            {
              "system": "urn:oid:2.16.840.1.113883.2.4.4.10",
              "code": "88749",
              "display": "VLOEIBARE VOEDING MET O.A. VITAMINE K"
            },
            {
              "system": "urn:oid:2.16.840.1.113883.2.4.4.1",
              "code": "130575",
              "display": "VLOEIBARE VOEDING MET O.A. VITAMINE K"
            }
          ],
          "text": "NUTRIDRINK BANAANSMAAK"
        }
      },
      "request": {
        "method": "POST",
        "url": "Medication"
      }
    },
    {
      "fullUrl": "urn:uuid:c33f20ee-6a95-11ec-0000-020000000000",
      "resource": {
        "resourceType": "Medication",
        "id": "nl-core-PhPrd-mp9-216840111388324410-3956",
        "meta": {
          "profile": [
            "http://nictiz.nl/fhir/StructureDefinition/nl-core-PharmaceuticalProduct"
          ]
        },
        "code": {
          "coding": [
            {
              "system": "urn:oid:2.16.840.1.113883.2.4.4.10",
              "code": "3956",
              "display": "ACETYLSALICYLZUUR TABLET 100MG",
              "userSelected": true
            },
            {
              "system": "urn:oid:2.16.840.1.113883.2.4.4.1",
              "code": "12548",
              "display": "ACETYLSALICYLZUUR TABLET 100MG"
            }
          ],
          "text": "ACETYLSALICYLZUUR TABLET 100MG"
        }
      },
      "request": {
        "method": "POST",
        "url": "Medication"
      }
    },
    {
      "fullUrl": "urn:uuid:c33f210c-6a95-11ec-0000-020000000000",
      "resource": {
        "resourceType": "Medication",
        "id": "nl-core-PhPrd-mp9-21684011138832447-665800",
        "meta": {
          "profile": [
            "http://nictiz.nl/fhir/StructureDefinition/nl-core-PharmaceuticalProduct"
          ]
        },
        "code": {
          "coding": [
            {
              "system": "urn:oid:2.16.840.1.113883.2.4.4.7",
              "code": "665800",
              "display": "PARACETAMOL SANDOZ TABLET 500MG",
              "userSelected": true
            },
            {
              "system": "urn:oid:2.16.840.1.113883.2.4.4.10",
              "code": "67903",
              "display": "PARACETAMOL 500MG TABLET"
            },
            {
              "system": "urn:oid:2.16.840.1.113883.2.4.4.1",
              "code": "2194",
              "display": "PARACETAMOL 500MG TABLET"
            }
          ],
          "text": "PARACETAMOL SANDOZ TABLET 500MG"
        }
      },
      "request": {
        "method": "POST",
        "url": "Medication"
      }
    },
    {
      "fullUrl": "urn:uuid:c33f212a-6a95-11ec-0000-020000000000",
      "resource": {
        "resourceType": "Medication",
        "id": "nl-core-PhPrd-mp9-216840111388324410-353",
        "meta": {
          "profile": [
            "http://nictiz.nl/fhir/StructureDefinition/nl-core-PharmaceuticalProduct"
          ]
        },
        "code": {
          "coding": [
            {
              "system": "urn:oid:2.16.840.1.113883.2.4.4.10",
              "code": "353",
              "display": "OXAZEPAM TABLET 10MG",
              "userSelected": true
            },
            {
              "system": "urn:oid:2.16.840.1.113883.2.4.4.1",
              "code": "1023",
              "display": "OXAZEPAM TABLET 10MG"
            }
          ],
          "text": "OXAZEPAM TABLET 10MG"
        }
      },
      "request": {
        "method": "POST",
        "url": "Medication"
      }
    }
  ]
}