{
  "resourceType": "Bundle",
  "id": "mg-mp-mg-tst-MGB-Scenarioset10-v20",
  "type": "transaction",
  "entry": [
    {
      "fullUrl": "urn:uuid:c33f0fa0-6a95-11ec-0000-020000000000",
      "resource": {
        "resourceType": "MedicationStatement",
        "meta": {
          "profile": [
            "http://nictiz.nl/fhir/StructureDefinition/mp-MedicationUse2"
          ]
        },
        "extension": [
          {
            "url": "http://nictiz.nl/fhir/StructureDefinition/ext-RenderedDosageInstruction",
            "valueString": "Vanaf T, tot en met T, 1 maal per dag 1 stuk, oraal"
          },
          {
            "url": "http://nictiz.nl/fhir/StructureDefinition/ext-MedicationUse2.Prescriber",
            "valueReference": {
              "reference": "urn:uuid:c33f0f64-6a95-11ec-0000-020000000000",
              "type": "PractitionerRole",
              "display": "Healthcare professional (role), Peter van Pulver, Huisartsen, niet nader gespecificeerd"
            }
          },
          {
            "url": "http://nictiz.nl/fhir/StructureDefinition/ext-AsAgreedIndicator",
            "valueBoolean": true
          },
          {
            "url": "http://nictiz.nl/fhir/StructureDefinition/ext-PharmaceuticalTreatment.Identifier",
            "valueIdentifier": {
              "system": "urn:oid:2.16.840.1.113883.2.4.3.11.999.77.1.1",
              "value": "MBH_200_HPKvoorschrijven"
            }
          },
          {
            "url": "http://nictiz.nl/fhir/StructureDefinition/ext-MedicationUse2.Author",
            "valueReference": {
              "reference": "urn:uuid:c33f0f46-6a95-11ec-0000-020000000000",
              "type": "Patient",
              "display": "Patient, J. XXX_Bree"
            }
          }
        ],
        "identifier": [
          {
            "system": "urn:oid:2.16.840.1.113883.2.4.3.11.999.77.6.1",
            "value": "MBH_200_HPKvoorschrijven_MGB"
          }
        ],
        "status": "active",
        "category": {
          "coding": [
            {
              "system": "http://snomed.info/sct",
              "code": "422979000",
              "display": "bevinding betreffende gedrag met betrekking tot medicatieregime"
            }
          ]
        },
        "medicationReference": {
          "reference": "urn:uuid:c33f0fdc-6a95-11ec-0000-020000000000",
          "type": "Medication",
          "display": "XARELTO TABLET FILMOMHULD 20MG"
        },
        "subject": {
          "reference": "urn:uuid:c33f0f46-6a95-11ec-0000-020000000000",
          "type": "Patient",
          "display": "Patient, J. XXX_Bree"
        },
        "effectivePeriod": {
          "start": "${DATE, T, D, +0}T00:00:00+02:00",
          "end": "${DATE, T, D, +0}T23:59:59+02:00"
        },
        "dateAsserted": "${DATE, T, D, +0}T22:08:00+02:00",
        "derivedFrom": [
          {
            "extension": [
              {
                "url": "http://nictiz.nl/fhir/StructureDefinition/ext-ResourceCategory",
                "valueCodeableConcept": {
                  "coding": [
                    {
                      "system": "http://snomed.info/sct",
                      "code": "422037009",
                      "display": "toedieningsafspraak"
                    }
                  ]
                }
              }
            ],
            "identifier": {
              "system": "urn:oid:2.16.840.1.113883.2.4.3.11.999.77.422037009.1",
              "value": "MBH_200_HPKvoorschrijven_TA"
            },
            "display": "relatie naar toedieningsafspraak"
          }
        ],
        "dosage": [
          {
            "timing": {
              "repeat": {
                "frequency": 1,
                "period": 1,
                "periodUnit": "d"
              }
            },
            "route": {
              "coding": [
                {
                  "system": "urn:oid:2.16.840.1.113883.2.4.4.9",
                  "code": "9",
                  "display": "oraal"
                }
              ]
            },
            "doseAndRate": [
              {
                "doseQuantity": {
                  "extension": [
                    {
                      "url": "http://hl7.org/fhir/StructureDefinition/iso21090-PQ-translation",
                      "valueQuantity": {
                        "value": 1,
                        "unit": "stuk",
                        "system": "urn:oid:2.16.840.1.113883.2.4.4.1.900.2",
                        "code": "245"
                      }
                    }
                  ],
                  "value": 1,
                  "unit": "stuk",
                  "system": "http://unitsofmeasure.org",
                  "code": "1"
                }
              }
            ]
          }
        ]
      },
      "request": {
        "method": "POST",
        "url": "MedicationStatement"
      }
    },
    {
      "fullUrl": "urn:uuid:c33f0fbe-6a95-11ec-0000-020000000000",
      "resource": {
        "resourceType": "MedicationStatement",
        "meta": {
          "profile": [
            "http://nictiz.nl/fhir/StructureDefinition/mp-MedicationUse2"
          ]
        },
        "extension": [
          {
            "url": "http://nictiz.nl/fhir/StructureDefinition/ext-RenderedDosageInstruction",
            "valueString": "Vanaf T, tot en met T, 1 maal per dag 1 stuk, oraal"
          },
          {
            "url": "http://nictiz.nl/fhir/StructureDefinition/ext-MedicationUse2.Prescriber",
            "valueReference": {
              "reference": "urn:uuid:c33f0f64-6a95-11ec-0000-020000000000",
              "type": "PractitionerRole",
              "display": "Healthcare professional (role), Peter van Pulver, Huisartsen, niet nader gespecificeerd"
            }
          },
          {
            "url": "http://nictiz.nl/fhir/StructureDefinition/ext-AsAgreedIndicator",
            "valueBoolean": true
          },
          {
            "url": "http://nictiz.nl/fhir/StructureDefinition/ext-PharmaceuticalTreatment.Identifier",
            "valueIdentifier": {
              "system": "urn:oid:2.16.840.1.113883.2.4.3.11.999.77.1.1",
              "value": "MBH_200_ZINRvoorschrijven"
            }
          },
          {
            "url": "http://nictiz.nl/fhir/StructureDefinition/ext-MedicationUse2.Author",
            "valueReference": {
              "reference": "urn:uuid:c33f0f46-6a95-11ec-0000-020000000000",
              "type": "Patient",
              "display": "Patient, J. XXX_Bree"
            }
          }
        ],
        "identifier": [
          {
            "system": "urn:oid:2.16.840.1.113883.2.4.3.11.999.77.6.1",
            "value": "MBH_200_ZINRvoorschrijven_MGB"
          }
        ],
        "status": "active",
        "category": {
          "coding": [
            {
              "system": "http://snomed.info/sct",
              "code": "422979000",
              "display": "bevinding betreffende gedrag met betrekking tot medicatieregime"
            }
          ]
        },
        "medicationReference": {
          "reference": "urn:uuid:c33f0ffa-6a95-11ec-0000-020000000000",
          "type": "Medication",
          "display": "INDAPAMIDE PCH TABET OMHULD 2,5MG"
        },
        "subject": {
          "reference": "urn:uuid:c33f0f46-6a95-11ec-0000-020000000000",
          "type": "Patient",
          "display": "Patient, J. XXX_Bree"
        },
        "effectivePeriod": {
          "start": "${DATE, T, D, +0}T00:00:00+02:00",
          "end": "${DATE, T, D, +0}T23:59:59+02:00"
        },
        "dateAsserted": "${DATE, T, D, +0}T22:08:00+02:00",
        "derivedFrom": [
          {
            "extension": [
              {
                "url": "http://nictiz.nl/fhir/StructureDefinition/ext-ResourceCategory",
                "valueCodeableConcept": {
                  "coding": [
                    {
                      "system": "http://snomed.info/sct",
                      "code": "422037009",
                      "display": "toedieningsafspraak"
                    }
                  ]
                }
              }
            ],
            "identifier": {
              "system": "urn:oid:2.16.840.1.113883.2.4.3.11.999.77.422037009.1",
              "value": "MBH_200_ZINRvoorschrijven_TA"
            },
            "display": "relatie naar toedieningsafspraak"
          }
        ],
        "dosage": [
          {
            "timing": {
              "repeat": {
                "frequency": 1,
                "period": 1,
                "periodUnit": "d"
              }
            },
            "route": {
              "coding": [
                {
                  "system": "urn:oid:2.16.840.1.113883.2.4.4.9",
                  "code": "9",
                  "display": "oraal"
                }
              ]
            },
            "doseAndRate": [
              {
                "doseQuantity": {
                  "extension": [
                    {
                      "url": "http://hl7.org/fhir/StructureDefinition/iso21090-PQ-translation",
                      "valueQuantity": {
                        "value": 1,
                        "unit": "stuk",
                        "system": "urn:oid:2.16.840.1.113883.2.4.4.1.900.2",
                        "code": "245"
                      }
                    }
                  ],
                  "value": 1,
                  "unit": "stuk",
                  "system": "http://unitsofmeasure.org",
                  "code": "1"
                }
              }
            ]
          }
        ]
      },
      "request": {
        "method": "POST",
        "url": "MedicationStatement"
      }
    },
    {
      "fullUrl": "urn:uuid:c33f0f46-6a95-11ec-0000-020000000000",
      "resource": {
        "resourceType": "Patient",
        "meta": {
          "profile": [
            "http://nictiz.nl/fhir/StructureDefinition/nl-core-Patient"
          ]
        },
        "identifier": [
          {
            "system": "http://fhir.nl/fhir/NamingSystem/bsn",
            "value": "999901588"
          }
        ],
        "name": [
          {
            "extension": [
              {
                "url": "http://hl7.org/fhir/StructureDefinition/humanname-assembly-order",
                "valueCode": "NL1"
              }
            ],
            "use": "official",
            "text": "J. XXX_Bree",
            "family": "XXX_Bree",
            "_family": {
              "extension": [
                {
                  "url": "http://hl7.org/fhir/StructureDefinition/humanname-own-name",
                  "valueString": "XXX_Bree"
                }
              ]
            },
            "given": [
              "J."
            ],
            "_given": [
              {
                "extension": [
                  {
                    "url": "http://hl7.org/fhir/StructureDefinition/iso21090-EN-qualifier",
                    "valueCode": "IN"
                  }
                ]
              }
            ]
          }
        ],
        "gender": "male",
        "_gender": {
          "extension": [
            {
              "url": "http://nictiz.nl/fhir/StructureDefinition/ext-CodeSpecification",
              "valueCodeableConcept": {
                "coding": [
                  {
                    "system": "http://terminology.hl7.org/CodeSystem/v3-AdministrativeGender",
                    "code": "M",
                    "display": "Man"
                  }
                ]
              }
            }
          ]
        },
        "birthDate": "2010-07-01"
      },
      "request": {
        "method": "POST",
        "url": "Patient"
      }
    },
    {
      "fullUrl": "urn:uuid:c33f0f64-6a95-11ec-0000-020000000000",
      "resource": {
        "resourceType": "PractitionerRole",
        "meta": {
          "profile": [
            "http://nictiz.nl/fhir/StructureDefinition/nl-core-HealthProfessional-PractitionerRole"
          ]
        },
        "practitioner": {
          "reference": "urn:uuid:c33f0f82-6a95-11ec-0000-020000000000",
          "type": "Practitioner",
          "display": "Healthcare professional (person), Peter van Pulver"
        },
        "organization": {
          "reference": "urn:uuid:c33f1018-6a95-11ec-0000-020000000000",
          "type": "Organization",
          "display": "Healthcare provider (organization), Huisartsenpraktijk Pulver & Partners"
        },
        "specialty": [
          {
            "coding": [
              {
                "system": "urn:oid:2.16.840.1.113883.2.4.6.7",
                "version": "2020-10-23T00:00:00",
                "code": "0100",
                "display": "Huisartsen, niet nader gespecificeerd"
              }
            ]
          }
        ]
      },
      "request": {
        "method": "POST",
        "url": "PractitionerRole"
      }
    },
    {
      "fullUrl": "urn:uuid:c33f0f82-6a95-11ec-0000-020000000000",
      "resource": {
        "resourceType": "Practitioner",
        "meta": {
          "profile": [
            "http://nictiz.nl/fhir/StructureDefinition/nl-core-HealthProfessional-Practitioner"
          ]
        },
        "identifier": [
          {
            "system": "http://fhir.nl/fhir/NamingSystem/uzi-nr-pers",
            "value": "000001111"
          }
        ],
        "name": [
          {
            "use": "official",
            "text": "Peter van Pulver",
            "family": "van Pulver",
            "_family": {
              "extension": [
                {
                  "url": "http://hl7.org/fhir/StructureDefinition/humanname-own-prefix",
                  "valueString": "van"
                },
                {
                  "url": "http://hl7.org/fhir/StructureDefinition/humanname-own-name",
                  "valueString": "Pulver"
                }
              ]
            },
            "given": [
              "Peter"
            ],
            "_given": [
              {
                "extension": [
                  {
                    "url": "http://hl7.org/fhir/StructureDefinition/iso21090-EN-qualifier",
                    "valueCode": "BR"
                  }
                ]
              }
            ]
          }
        ]
      },
      "request": {
        "method": "POST",
        "url": "Practitioner"
      }
    },
    {
      "fullUrl": "urn:uuid:c33f1018-6a95-11ec-0000-020000000000",
      "resource": {
        "resourceType": "Organization",
        "meta": {
          "profile": [
            "http://nictiz.nl/fhir/StructureDefinition/nl-core-HealthcareProvider-Organization"
          ]
        },
        "identifier": [
          {
            "system": "http://fhir.nl/fhir/NamingSystem/ura",
            "value": "00001111"
          }
        ],
        "name": "Huisartsenpraktijk Pulver & Partners",
        "address": [
          {
            "extension": [
              {
                "url": "http://nictiz.nl/fhir/StructureDefinition/ext-AddressInformation.AddressType",
                "valueCodeableConcept": {
                  "coding": [
                    {
                      "system": "http://terminology.hl7.org/CodeSystem/v3-AddressUse",
                      "code": "WP",
                      "display": "Werkadres"
                    }
                  ]
                }
              }
            ],
            "use": "work",
            "line": [
              "Dorpsstraat 1"
            ],
            "_line": [
              {
                "extension": [
                  {
                    "url": "http://hl7.org/fhir/StructureDefinition/iso21090-ADXP-streetName",
                    "valueString": "Dorpsstraat"
                  },
                  {
                    "url": "http://hl7.org/fhir/StructureDefinition/iso21090-ADXP-houseNumber",
                    "valueString": "1"
                  }
                ]
              }
            ],
            "city": "Ons Dorp",
            "postalCode": "1234AA"
          }
        ]
      },
      "request": {
        "method": "POST",
        "url": "Organization"
      }
    },
    {
      "fullUrl": "urn:uuid:c33f0fdc-6a95-11ec-0000-020000000000",
      "resource": {
        "resourceType": "Medication",
        "meta": {
          "profile": [
            "http://nictiz.nl/fhir/StructureDefinition/nl-core-PharmaceuticalProduct"
          ]
        },
        "code": {
          "coding": [
            {
              "system": "urn:oid:2.16.840.1.113883.2.4.4.7",
              "code": "2214350",
              "display": "XARELTO TABLET FILMOMHULD 20MG",
              "userSelected": true
            },
            {
              "system": "urn:oid:2.16.840.1.113883.2.4.4.10",
              "code": "100153",
              "display": "RIVAROXABAN TABLET 20MG"
            },
            {
              "system": "urn:oid:2.16.840.1.113883.2.4.4.1",
              "code": "138363",
              "display": "RIVAROXABAN TABLET 20MG"
            }
          ],
          "text": "XARELTO TABLET FILMOMHULD 20MG"
        }
      },
      "request": {
        "method": "POST",
        "url": "Medication"
      }
    },
    {
      "fullUrl": "urn:uuid:c33f0ffa-6a95-11ec-0000-020000000000",
      "resource": {
        "resourceType": "Medication",
        "meta": {
          "profile": [
            "http://nictiz.nl/fhir/StructureDefinition/nl-core-PharmaceuticalProduct"
          ]
        },
        "code": {
          "coding": [
            {
              "system": "urn:oid:2.16.840.1.113883.2.4.4.8",
              "code": "13627163",
              "display": "INDAPAMIDE PCH TABET OMHULD 2,5MG",
              "userSelected": true
            },
            {
              "system": "urn:oid:2.16.840.1.113883.2.4.4.7",
              "code": "695734",
              "display": "INDAPAMIDE PCH TABET OMHULD 2,5MG"
            },
            {
              "system": "urn:oid:2.16.840.1.113883.2.4.4.10",
              "code": "2941",
              "display": "INDAPAMIDE 2,5MG TABLET"
            },
            {
              "system": "urn:oid:2.16.840.1.113883.2.4.4.1",
              "code": "83593",
              "display": "INDAPAMIDE 2,5MG TABLET"
            }
          ],
          "text": "INDAPAMIDE PCH TABET OMHULD 2,5MG"
        }
      },
      "request": {
        "method": "POST",
        "url": "Medication"
      }
    }
  ]
}