{
  "resourceType": "Bundle",
  "id": "mg-mp-mg-tst-TA-Scenarioset3-v20",
  "type": "transaction",
  "entry": [ {
    "fullUrl": "urn:uuid:c33f2512-6a95-11ec-0000-020000000000",
    "resource": {
      "resourceType": "MedicationDispense",
      "meta": {
        "profile": [ "http://nictiz.nl/fhir/StructureDefinition/mp-AdministrationAgreement" ]
      },
      "text": {
        "status": "extensions",
        "div": "<div xmlns=\"http://www.w3.org/1999/xhtml\">\n            <table>\n              <caption>MedicationDispense. Subject: Patient, C. XXX_Dongen. Id: MBH_200_stoppen_TA_start (urn:oid:2.16.840.1.113883.2.4.3.11.999.77.422037009.1), Categorie: <span title=\"toedieningsafspraak (422037009 - SNOMED CT)\">toedieningsafspraak</span>, Status: onbekend<span style=\"display: block;\">Uitvoerende: Healthcare provider (organization), Apotheek De Gulle Gaper</span>\n              </caption>\n              <tbody>\n                <tr>\n                  <th>Gebaseerd op</th>\n                  <td>relatie naar medicatieafspraak met identificatie: MBH_200_stoppen_MA_start || 2.16.840.1.113883.2.4.3.11.999.77.16076005.1 (Id: MBH_200_stoppen_MA_start (urn:oid:2.16.840.1.113883.2.4.3.11.999.77.16076005.1))</td>\n                </tr>\n                <tr>\n                  <th>Medicatie</th>\n                  <td>ASPIRINE PROTECT EC TABLET MSR 100MG</td>\n                </tr>\n                <tr>\n                  <th>Doseerinstructie</th>\n                  <td>\n                    <div>Timing: <div>eenmalig per dag</div>\n                    </div>\n                    <div>Toedieningsweg: <span title=\"Oraal (9 - G-Standaard thesaurus subtabel 0007)\">Oraal</span>\n                    </div>\n                    <div>Dosering: doseAndRate TODO</div>\n                  </td>\n                </tr>\n              </tbody>\n            </table>\n          </div>"
      },
      "extension": [ {
        "url": "http://nictiz.nl/fhir/StructureDefinition/ext-AdministrationAgreement.AdministrationAgreementDateTime",
        "valueDateTime": "${DATE, T, D, -60}T09:00:00+02:00"
      }, {
        "url": "http://nictiz.nl/fhir/StructureDefinition/ext-RenderedDosageInstruction",
        "valueString": "Vanaf T - 60 dagen, tot en met T + 220 dagen, 1 maal per dag 1 stuk, Oraal"
      }, {
        "url": "http://nictiz.nl/fhir/StructureDefinition/ext-TimeInterval.Period",
        "valuePeriod": {
          "start": "${DATE, T, D, -60}T00:00:00+02:00",
          "end": "${DATE, T, D, -60}T23:59:59+02:00"
        }
      }, {
        "url": "http://nictiz.nl/fhir/StructureDefinition/ext-PharmaceuticalTreatment.Identifier",
        "valueIdentifier": {
          "system": "urn:oid:2.16.840.1.113883.2.4.3.11.999.77.1.1",
          "value": "MBH_200_stoppen"
        }
      } ],
      "identifier": [ {
        "system": "urn:oid:2.16.840.1.113883.2.4.3.11.999.77.422037009.1",
        "value": "MBH_200_stoppen_TA_start"
      } ],
      "status": "unknown",
      "category": {
        "coding": [ {
          "system": "http://snomed.info/sct",
          "code": "422037009",
          "display": "toedieningsafspraak"
        } ]
      },
      "medicationReference": {
        "reference": "urn:uuid:c33f2698-6a95-11ec-0000-020000000000",
        "type": "Medication",
        "display": "ASPIRINE PROTECT EC TABLET MSR 100MG"
      },
      "subject": {
        "reference": "urn:uuid:c33f24f4-6a95-11ec-0000-020000000000",
        "type": "Patient",
        "display": "Patient, C. XXX_Dongen"
      },
      "performer": [ {
        "actor": {
          "reference": "urn:uuid:c33f003c-6a95-11ec-0000-020000000000",
          "type": "Organization",
          "display": "Healthcare provider (organization), Apotheek De Gulle Gaper"
        }
      } ],
      "authorizingPrescription": [ {
        "type": "MedicationRequest",
        "identifier": {
          "system": "urn:oid:2.16.840.1.113883.2.4.3.11.999.77.16076005.1",
          "value": "MBH_200_stoppen_MA_start"
        },
        "display": "relatie naar medicatieafspraak met identificatie: MBH_200_stoppen_MA_start || 2.16.840.1.113883.2.4.3.11.999.77.16076005.1"
      } ],
      "dosageInstruction": [ {
        "timing": {
          "repeat": {
            "frequency": 1,
            "period": 1,
            "periodUnit": "d"
          }
        },
        "route": {
          "coding": [ {
            "system": "urn:oid:2.16.840.1.113883.2.4.4.9",
            "code": "9",
            "display": "Oraal"
          } ]
        },
        "doseAndRate": [ {
          "doseQuantity": {
            "extension": [ {
              "url": "http://hl7.org/fhir/StructureDefinition/iso21090-PQ-translation",
              "valueQuantity": {
                "value": 1,
                "unit": "stuk",
                "system": "urn:oid:2.16.840.1.113883.2.4.4.1.900.2",
                "code": "245"
              }
            } ],
            "value": 1,
            "unit": "stuk",
            "system": "http://unitsofmeasure.org",
            "code": "1"
          }
        } ]
      } ]
    },
    "request": {
      "method": "POST",
      "url": "MedicationDispense"
    }
  }, {
    "fullUrl": "urn:uuid:c33f2530-6a95-11ec-0000-020000000000",
    "resource": {
      "resourceType": "MedicationDispense",
      "meta": {
        "profile": [ "http://nictiz.nl/fhir/StructureDefinition/mp-AdministrationAgreement" ]
      },
      "text": {
        "status": "extensions",
        "div": "<div xmlns=\"http://www.w3.org/1999/xhtml\">\n            <table>\n              <caption>MedicationDispense. Subject: Patient, C. XXX_Dongen. Id: MBH_200_stoppen_TA_staken (urn:oid:2.16.840.1.113883.2.4.3.11.999.77.422037009.1), Categorie: <span title=\"toedieningsafspraak (422037009 - SNOMED CT)\">toedieningsafspraak</span>, Status: onbekend<span style=\"display: block;\">Uitvoerende: Healthcare provider (organization), Apotheek Jansen en Co</span>\n              </caption>\n              <tbody>\n                <tr>\n                  <th>Gebaseerd op</th>\n                  <td>relatie naar medicatieafspraak met identificatie: MBH_200_stoppen_MA_staken || 2.16.840.1.113883.2.4.3.11.999.77.16076005.1 (Id: MBH_200_stoppen_MA_staken (urn:oid:2.16.840.1.113883.2.4.3.11.999.77.16076005.1))</td>\n                </tr>\n                <tr>\n                  <th>Medicatie</th>\n                  <td>ASPIRINE PROTECT EC TABLET MSR 100MG</td>\n                </tr>\n                <tr>\n                  <th>Doseerinstructie</th>\n                  <td>\n                    <div>Timing: <div>eenmalig per dag</div>\n                    </div>\n                    <div>Toedieningsweg: <span title=\"Oraal (9 - G-Standaard thesaurus subtabel 0007)\">Oraal</span>\n                    </div>\n                    <div>Dosering: doseAndRate TODO</div>\n                  </td>\n                </tr>\n              </tbody>\n            </table>\n          </div>"
      },
      "extension": [ {
        "url": "http://nictiz.nl/fhir/StructureDefinition/ext-AdministrationAgreement.AdministrationAgreementDateTime",
        "valueDateTime": "${DATE, T, D, -60}T19:00:00+02:00"
      }, {
        "url": "http://nictiz.nl/fhir/StructureDefinition/ext-RenderedDosageInstruction",
        "valueString": "Vanaf T - 60 dagen, tot en met T, 1 maal per dag 1 stuk, Oraal, definitief gestopt"
      }, {
        "url": "http://nictiz.nl/fhir/StructureDefinition/ext-TimeInterval.Period",
        "valuePeriod": {
          "start": "${DATE, T, D, -60}T00:00:00+02:00",
          "end": "${DATE, T, D, -60}T23:59:59+02:00"
        }
      }, {
        "url": "http://nictiz.nl/fhir/StructureDefinition/ext-PharmaceuticalTreatment.Identifier",
        "valueIdentifier": {
          "system": "urn:oid:2.16.840.1.113883.2.4.3.11.999.77.1.1",
          "value": "MBH_200_stoppen"
        }
      } ],
      "modifierExtension": [ {
        "url": "http://nictiz.nl/fhir/StructureDefinition/ext-StopType",
        "valueCodeableConcept": {
          "coding": [ {
            "system": "http://snomed.info/sct",
            "code": "113371000146109",
            "display": "definitief gestopt met medicatie"
          } ]
        }
      } ],
      "identifier": [ {
        "system": "urn:oid:2.16.840.1.113883.2.4.3.11.999.77.422037009.1",
        "value": "MBH_200_stoppen_TA_staken"
      } ],
      "status": "unknown",
      "category": {
        "coding": [ {
          "system": "http://snomed.info/sct",
          "code": "422037009",
          "display": "toedieningsafspraak"
        } ]
      },
      "medicationReference": {
        "reference": "urn:uuid:c33f2698-6a95-11ec-0000-020000000000",
        "type": "Medication",
        "display": "ASPIRINE PROTECT EC TABLET MSR 100MG"
      },
      "subject": {
        "reference": "urn:uuid:c33f24f4-6a95-11ec-0000-020000000000",
        "type": "Patient",
        "display": "Patient, C. XXX_Dongen"
      },
      "performer": [ {
        "actor": {
          "reference": "urn:uuid:c33f0078-6a95-11ec-0000-020000000000",
          "type": "Organization",
          "display": "Healthcare provider (organization), Apotheek Jansen en Co"
        }
      } ],
      "authorizingPrescription": [ {
        "type": "MedicationRequest",
        "identifier": {
          "system": "urn:oid:2.16.840.1.113883.2.4.3.11.999.77.16076005.1",
          "value": "MBH_200_stoppen_MA_staken"
        },
        "display": "relatie naar medicatieafspraak met identificatie: MBH_200_stoppen_MA_staken || 2.16.840.1.113883.2.4.3.11.999.77.16076005.1"
      } ],
      "dosageInstruction": [ {
        "timing": {
          "repeat": {
            "frequency": 1,
            "period": 1,
            "periodUnit": "d"
          }
        },
        "route": {
          "coding": [ {
            "system": "urn:oid:2.16.840.1.113883.2.4.4.9",
            "code": "9",
            "display": "Oraal"
          } ]
        },
        "doseAndRate": [ {
          "doseQuantity": {
            "extension": [ {
              "url": "http://hl7.org/fhir/StructureDefinition/iso21090-PQ-translation",
              "valueQuantity": {
                "value": 1,
                "unit": "stuk",
                "system": "urn:oid:2.16.840.1.113883.2.4.4.1.900.2",
                "code": "245"
              }
            } ],
            "value": 1,
            "unit": "stuk",
            "system": "http://unitsofmeasure.org",
            "code": "1"
          }
        } ]
      } ]
    },
    "request": {
      "method": "POST",
      "url": "MedicationDispense"
    }
  }, {
    "fullUrl": "urn:uuid:c33f254e-6a95-11ec-0000-020000000000",
    "resource": {
      "resourceType": "MedicationDispense",
      "meta": {
        "profile": [ "http://nictiz.nl/fhir/StructureDefinition/mp-AdministrationAgreement" ]
      },
      "text": {
        "status": "extensions",
        "div": "<div xmlns=\"http://www.w3.org/1999/xhtml\">\n            <table>\n              <caption>MedicationDispense. Subject: Patient, C. XXX_Dongen. Id: MBH_200_wijzigen_verhoging_TA_start (urn:oid:2.16.840.1.113883.2.4.3.11.999.77.422037009.1), Categorie: <span title=\"toedieningsafspraak (422037009 - SNOMED CT)\">toedieningsafspraak</span>, Status: onbekend<span style=\"display: block;\">Uitvoerende: Healthcare provider (organization), Apotheek De Gulle Gaper</span>\n              </caption>\n              <tbody>\n                <tr>\n                  <th>Gebaseerd op</th>\n                  <td>relatie naar medicatieafspraak met identificatie: MBH_200_wijzigen_verhoging_MA_start || 2.16.840.1.113883.2.4.3.11.999.77.16076005.1 (Id: MBH_200_wijzigen_verhoging_MA_start (urn:oid:2.16.840.1.113883.2.4.3.11.999.77.16076005.1))</td>\n                </tr>\n                <tr>\n                  <th>Medicatie</th>\n                  <td>FUROSEMIDE SANDOZ TABLET 40MG</td>\n                </tr>\n                <tr>\n                  <th>Doseerinstructie</th>\n                  <td>\n                    <div>Timing: <div>eenmalig per dag</div>\n                    </div>\n                    <div>Toedieningsweg: <span title=\"Oraal (9 - G-Standaard thesaurus subtabel 0007)\">Oraal</span>\n                    </div>\n                    <div>Dosering: doseAndRate TODO</div>\n                  </td>\n                </tr>\n              </tbody>\n            </table>\n          </div>"
      },
      "extension": [ {
        "url": "http://nictiz.nl/fhir/StructureDefinition/ext-AdministrationAgreement.AdministrationAgreementDateTime",
        "valueDateTime": "${DATE, T, D, -60}T09:02:00+02:00"
      }, {
        "url": "http://nictiz.nl/fhir/StructureDefinition/ext-RenderedDosageInstruction",
        "valueString": "Vanaf T - 21 dagen, 1 maal per dag 1 stuk, Oraal"
      }, {
        "url": "http://nictiz.nl/fhir/StructureDefinition/ext-TimeInterval.Period",
        "valuePeriod": {
          "start": "${DATE, T, D, -60}T00:00:00+02:00"
        }
      }, {
        "url": "http://nictiz.nl/fhir/StructureDefinition/ext-PharmaceuticalTreatment.Identifier",
        "valueIdentifier": {
          "system": "urn:oid:2.16.840.1.113883.2.4.3.11.999.77.1.1",
          "value": "MBH_200_wijzigen_verhoging"
        }
      } ],
      "identifier": [ {
        "system": "urn:oid:2.16.840.1.113883.2.4.3.11.999.77.422037009.1",
        "value": "MBH_200_wijzigen_verhoging_TA_start"
      } ],
      "status": "unknown",
      "category": {
        "coding": [ {
          "system": "http://snomed.info/sct",
          "code": "422037009",
          "display": "toedieningsafspraak"
        } ]
      },
      "medicationReference": {
        "reference": "urn:uuid:c33f26b6-6a95-11ec-0000-020000000000",
        "type": "Medication",
        "display": "FUROSEMIDE SANDOZ TABLET 40MG"
      },
      "subject": {
        "reference": "urn:uuid:c33f24f4-6a95-11ec-0000-020000000000",
        "type": "Patient",
        "display": "Patient, C. XXX_Dongen"
      },
      "performer": [ {
        "actor": {
          "reference": "urn:uuid:c33f003c-6a95-11ec-0000-020000000000",
          "type": "Organization",
          "display": "Healthcare provider (organization), Apotheek De Gulle Gaper"
        }
      } ],
      "authorizingPrescription": [ {
        "type": "MedicationRequest",
        "identifier": {
          "system": "urn:oid:2.16.840.1.113883.2.4.3.11.999.77.16076005.1",
          "value": "MBH_200_wijzigen_verhoging_MA_start"
        },
        "display": "relatie naar medicatieafspraak met identificatie: MBH_200_wijzigen_verhoging_MA_start || 2.16.840.1.113883.2.4.3.11.999.77.16076005.1"
      } ],
      "dosageInstruction": [ {
        "timing": {
          "repeat": {
            "frequency": 1,
            "period": 1,
            "periodUnit": "d"
          }
        },
        "route": {
          "coding": [ {
            "system": "urn:oid:2.16.840.1.113883.2.4.4.9",
            "code": "9",
            "display": "Oraal"
          } ]
        },
        "doseAndRate": [ {
          "doseQuantity": {
            "extension": [ {
              "url": "http://hl7.org/fhir/StructureDefinition/iso21090-PQ-translation",
              "valueQuantity": {
                "value": 1,
                "unit": "stuk",
                "system": "urn:oid:2.16.840.1.113883.2.4.4.1.900.2",
                "code": "245"
              }
            } ],
            "value": 1,
            "unit": "stuk",
            "system": "http://unitsofmeasure.org",
            "code": "1"
          }
        } ]
      } ]
    },
    "request": {
      "method": "POST",
      "url": "MedicationDispense"
    }
  }, {
    "fullUrl": "urn:uuid:c33f256c-6a95-11ec-0000-020000000000",
    "resource": {
      "resourceType": "MedicationDispense",
      "meta": {
        "profile": [ "http://nictiz.nl/fhir/StructureDefinition/mp-AdministrationAgreement" ]
      },
      "text": {
        "status": "extensions",
        "div": "<div xmlns=\"http://www.w3.org/1999/xhtml\">\n            <table>\n              <caption>MedicationDispense. Subject: Patient, C. XXX_Dongen. Id: MBH_200_wijzigen_verhoging_TA_wijzigingmetMVE (urn:oid:2.16.840.1.113883.2.4.3.11.999.77.422037009.1), Categorie: <span title=\"toedieningsafspraak (422037009 - SNOMED CT)\">toedieningsafspraak</span>, Status: onbekend<span style=\"display: block;\">Uitvoerende: Healthcare provider (organization), Apotheek De Gulle Gaper</span>\n              </caption>\n              <tbody>\n                <tr>\n                  <th>Gebaseerd op</th>\n                  <td>relatie naar medicatieafspraak met identificatie: MBH_200_wijzigen_verhoging_MA_wijzigingmetVV || 2.16.840.1.113883.2.4.3.11.999.77.16076005.1 (Id: MBH_200_wijzigen_verhoging_MA_wijzigingmetVV (urn:oid:2.16.840.1.113883.2.4.3.11.999.77.16076005.1))</td>\n                </tr>\n                <tr>\n                  <th>Medicatie</th>\n                  <td>FUROSEMIDE SANDOZ TABLET 40MG</td>\n                </tr>\n                <tr>\n                  <th>Doseerinstructie</th>\n                  <td>\n                    <div>Timing: <div>eenmalig per dag</div>\n                    </div>\n                    <div>Toedieningsweg: <span title=\"Oraal (9 - G-Standaard thesaurus subtabel 0007)\">Oraal</span>\n                    </div>\n                    <div>Dosering: doseAndRate TODO</div>\n                  </td>\n                </tr>\n              </tbody>\n            </table>\n          </div>"
      },
      "extension": [ {
        "url": "http://nictiz.nl/fhir/StructureDefinition/ext-AdministrationAgreement.AdministrationAgreementDateTime",
        "valueDateTime": "${DATE, T, D, -60}T09:02:00+02:00"
      }, {
        "url": "http://nictiz.nl/fhir/StructureDefinition/ext-RenderedDosageInstruction",
        "valueString": "Vanaf T - 2 dagen, 1 maal per dag 2 stuks, Oraal"
      }, {
        "url": "http://nictiz.nl/fhir/StructureDefinition/ext-TimeInterval.Period",
        "valuePeriod": {
          "start": "${DATE, T, D, -60}T00:00:00+02:00"
        }
      }, {
        "url": "http://nictiz.nl/fhir/StructureDefinition/ext-PharmaceuticalTreatment.Identifier",
        "valueIdentifier": {
          "system": "urn:oid:2.16.840.1.113883.2.4.3.11.999.77.1.1",
          "value": "MBH_200_wijzigen_verhoging"
        }
      } ],
      "identifier": [ {
        "system": "urn:oid:2.16.840.1.113883.2.4.3.11.999.77.422037009.1",
        "value": "MBH_200_wijzigen_verhoging_TA_wijzigingmetMVE"
      } ],
      "status": "unknown",
      "category": {
        "coding": [ {
          "system": "http://snomed.info/sct",
          "code": "422037009",
          "display": "toedieningsafspraak"
        } ]
      },
      "medicationReference": {
        "reference": "urn:uuid:c33f26b6-6a95-11ec-0000-020000000000",
        "type": "Medication",
        "display": "FUROSEMIDE SANDOZ TABLET 40MG"
      },
      "subject": {
        "reference": "urn:uuid:c33f24f4-6a95-11ec-0000-020000000000",
        "type": "Patient",
        "display": "Patient, C. XXX_Dongen"
      },
      "performer": [ {
        "actor": {
          "reference": "urn:uuid:c33f003c-6a95-11ec-0000-020000000000",
          "type": "Organization",
          "display": "Healthcare provider (organization), Apotheek De Gulle Gaper"
        }
      } ],
      "authorizingPrescription": [ {
        "type": "MedicationRequest",
        "identifier": {
          "system": "urn:oid:2.16.840.1.113883.2.4.3.11.999.77.16076005.1",
          "value": "MBH_200_wijzigen_verhoging_MA_wijzigingmetVV"
        },
        "display": "relatie naar medicatieafspraak met identificatie: MBH_200_wijzigen_verhoging_MA_wijzigingmetVV || 2.16.840.1.113883.2.4.3.11.999.77.16076005.1"
      } ],
      "dosageInstruction": [ {
        "timing": {
          "repeat": {
            "frequency": 1,
            "period": 1,
            "periodUnit": "d"
          }
        },
        "route": {
          "coding": [ {
            "system": "urn:oid:2.16.840.1.113883.2.4.4.9",
            "code": "9",
            "display": "Oraal"
          } ]
        },
        "doseAndRate": [ {
          "doseQuantity": {
            "extension": [ {
              "url": "http://hl7.org/fhir/StructureDefinition/iso21090-PQ-translation",
              "valueQuantity": {
                "value": 2,
                "unit": "stuk",
                "system": "urn:oid:2.16.840.1.113883.2.4.4.1.900.2",
                "code": "245"
              }
            } ],
            "value": 2,
            "unit": "stuk",
            "system": "http://unitsofmeasure.org",
            "code": "1"
          }
        } ]
      } ]
    },
    "request": {
      "method": "POST",
      "url": "MedicationDispense"
    }
  }, {
    "fullUrl": "urn:uuid:c33f258a-6a95-11ec-0000-020000000000",
    "resource": {
      "resourceType": "MedicationDispense",
      "meta": {
        "profile": [ "http://nictiz.nl/fhir/StructureDefinition/mp-AdministrationAgreement" ]
      },
      "text": {
        "status": "extensions",
        "div": "<div xmlns=\"http://www.w3.org/1999/xhtml\">\n            <table>\n              <caption>MedicationDispense. Subject: Patient, C. XXX_Dongen. Id: MBH_200_wijzigen_verhoging_TA_techstaken (urn:oid:2.16.840.1.113883.2.4.3.11.999.77.422037009.1), Categorie: <span title=\"toedieningsafspraak (422037009 - SNOMED CT)\">toedieningsafspraak</span>, Status: onbekend<span style=\"display: block;\">Uitvoerende: Healthcare provider (organization), Apotheek Jansen en Co</span>\n              </caption>\n              <tbody>\n                <tr>\n                  <th>Gebaseerd op</th>\n                  <td>relatie naar medicatieafspraak met identificatie: MBH_200_wijzigen_verhoging_MA_techstaken || 2.16.840.1.113883.2.4.3.11.999.77.16076005.1 (Id: MBH_200_wijzigen_verhoging_MA_techstaken (urn:oid:2.16.840.1.113883.2.4.3.11.999.77.16076005.1))</td>\n                </tr>\n                <tr>\n                  <th>Medicatie</th>\n                  <td>FUROSEMIDE SANDOZ TABLET 40MG</td>\n                </tr>\n                <tr>\n                  <th>Doseerinstructie</th>\n                  <td>\n                    <div>Timing: <div>eenmalig per dag</div>\n                    </div>\n                    <div>Toedieningsweg: <span title=\"Oraal (9 - G-Standaard thesaurus subtabel 0007)\">Oraal</span>\n                    </div>\n                    <div>Dosering: doseAndRate TODO</div>\n                  </td>\n                </tr>\n              </tbody>\n            </table>\n          </div>"
      },
      "extension": [ {
        "url": "http://nictiz.nl/fhir/StructureDefinition/ext-AdministrationAgreement.AdministrationAgreementDateTime",
        "valueDateTime": "${DATE, T, D, -60}T09:02:00+02:00"
      }, {
        "url": "http://nictiz.nl/fhir/StructureDefinition/ext-RenderedDosageInstruction",
        "valueString": "Vanaf T - 21 dagen, tot en met T - 3 dagen, 1 maal per dag 1 stuk, Oraal, definitief gestopt"
      }, {
        "url": "http://nictiz.nl/fhir/StructureDefinition/ext-TimeInterval.Period",
        "valuePeriod": {
          "start": "${DATE, T, D, -60}T00:00:00+02:00",
          "end": "${DATE, T, D, -60}T23:59:59+02:00"
        }
      }, {
        "url": "http://nictiz.nl/fhir/StructureDefinition/ext-PharmaceuticalTreatment.Identifier",
        "valueIdentifier": {
          "system": "urn:oid:2.16.840.1.113883.2.4.3.11.999.77.1.1",
          "value": "MBH_200_wijzigen_verhoging"
        }
      } ],
      "modifierExtension": [ {
        "url": "http://nictiz.nl/fhir/StructureDefinition/ext-StopType",
        "valueCodeableConcept": {
          "coding": [ {
            "system": "http://snomed.info/sct",
            "code": "113371000146109",
            "display": "definitief gestopt met medicatie"
          } ]
        }
      } ],
      "identifier": [ {
        "system": "urn:oid:2.16.840.1.113883.2.4.3.11.999.77.422037009.1",
        "value": "MBH_200_wijzigen_verhoging_TA_techstaken"
      } ],
      "status": "unknown",
      "category": {
        "coding": [ {
          "system": "http://snomed.info/sct",
          "code": "422037009",
          "display": "toedieningsafspraak"
        } ]
      },
      "medicationReference": {
        "reference": "urn:uuid:c33f26b6-6a95-11ec-0000-020000000000",
        "type": "Medication",
        "display": "FUROSEMIDE SANDOZ TABLET 40MG"
      },
      "subject": {
        "reference": "urn:uuid:c33f24f4-6a95-11ec-0000-020000000000",
        "type": "Patient",
        "display": "Patient, C. XXX_Dongen"
      },
      "performer": [ {
        "actor": {
          "reference": "urn:uuid:c33f0078-6a95-11ec-0000-020000000000",
          "type": "Organization",
          "display": "Healthcare provider (organization), Apotheek Jansen en Co"
        }
      } ],
      "authorizingPrescription": [ {
        "type": "MedicationRequest",
        "identifier": {
          "system": "urn:oid:2.16.840.1.113883.2.4.3.11.999.77.16076005.1",
          "value": "MBH_200_wijzigen_verhoging_MA_techstaken"
        },
        "display": "relatie naar medicatieafspraak met identificatie: MBH_200_wijzigen_verhoging_MA_techstaken || 2.16.840.1.113883.2.4.3.11.999.77.16076005.1"
      } ],
      "dosageInstruction": [ {
        "timing": {
          "repeat": {
            "frequency": 1,
            "period": 1,
            "periodUnit": "d"
          }
        },
        "route": {
          "coding": [ {
            "system": "urn:oid:2.16.840.1.113883.2.4.4.9",
            "code": "9",
            "display": "Oraal"
          } ]
        },
        "doseAndRate": [ {
          "doseQuantity": {
            "extension": [ {
              "url": "http://hl7.org/fhir/StructureDefinition/iso21090-PQ-translation",
              "valueQuantity": {
                "value": 1,
                "unit": "stuk",
                "system": "urn:oid:2.16.840.1.113883.2.4.4.1.900.2",
                "code": "245"
              }
            } ],
            "value": 1,
            "unit": "stuk",
            "system": "http://unitsofmeasure.org",
            "code": "1"
          }
        } ]
      } ]
    },
    "request": {
      "method": "POST",
      "url": "MedicationDispense"
    }
  }, {
    "fullUrl": "urn:uuid:c33f25a8-6a95-11ec-0000-020000000000",
    "resource": {
      "resourceType": "MedicationDispense",
      "meta": {
        "profile": [ "http://nictiz.nl/fhir/StructureDefinition/mp-AdministrationAgreement" ]
      },
      "text": {
        "status": "extensions",
        "div": "<div xmlns=\"http://www.w3.org/1999/xhtml\">\n            <table>\n              <caption>MedicationDispense. Subject: Patient, C. XXX_Dongen. Id: MBH_200_wijzigen_verlaging_TA_start (urn:oid:2.16.840.1.113883.2.4.3.11.999.77.422037009.1), Categorie: <span title=\"toedieningsafspraak (422037009 - SNOMED CT)\">toedieningsafspraak</span>, Status: onbekend<span style=\"display: block;\">Uitvoerende: Healthcare provider (organization), Apotheek De Gulle Gaper</span>\n              </caption>\n              <tbody>\n                <tr>\n                  <th>Gebaseerd op</th>\n                  <td>relatie naar medicatieafspraak met identificatie: MBH_200_wijzigen_verlaging_MA_start || 2.16.840.1.113883.2.4.3.11.999.77.16076005.1 (Id: MBH_200_wijzigen_verlaging_MA_start (urn:oid:2.16.840.1.113883.2.4.3.11.999.77.16076005.1))</td>\n                </tr>\n                <tr>\n                  <th>Medicatie</th>\n                  <td>FERROFUMARAAT TEVA TABLET 200MG</td>\n                </tr>\n                <tr>\n                  <th>Doseerinstructie</th>\n                  <td>\n                    <div>Timing: <div>eenmalig per week</div>\n                    </div>\n                    <div>Toedieningsweg: <span title=\"Oraal (9 - G-Standaard thesaurus subtabel 0007)\">Oraal</span>\n                    </div>\n                    <div>Dosering: doseAndRate TODO</div>\n                  </td>\n                </tr>\n              </tbody>\n            </table>\n          </div>"
      },
      "extension": [ {
        "url": "http://nictiz.nl/fhir/StructureDefinition/ext-AdministrationAgreement.AdministrationAgreementDateTime",
        "valueDateTime": "${DATE, T, D, -60}T09:05:00+02:00"
      }, {
        "url": "http://nictiz.nl/fhir/StructureDefinition/ext-RenderedDosageInstruction",
        "valueString": "Vanaf T - 13 dagen, tot en met T + 14 dagen, 1 maal per week 1 stuk, Oraal"
      }, {
        "url": "http://nictiz.nl/fhir/StructureDefinition/ext-TimeInterval.Period",
        "valuePeriod": {
          "start": "${DATE, T, D, -60}T00:00:00+02:00",
          "end": "${DATE, T, D, -60}T23:59:59+02:00"
        }
      }, {
        "url": "http://nictiz.nl/fhir/StructureDefinition/ext-PharmaceuticalTreatment.Identifier",
        "valueIdentifier": {
          "system": "urn:oid:2.16.840.1.113883.2.4.3.11.999.77.1.1",
          "value": "MBH_200_wijzigen_verlaging"
        }
      } ],
      "identifier": [ {
        "system": "urn:oid:2.16.840.1.113883.2.4.3.11.999.77.422037009.1",
        "value": "MBH_200_wijzigen_verlaging_TA_start"
      } ],
      "status": "unknown",
      "category": {
        "coding": [ {
          "system": "http://snomed.info/sct",
          "code": "422037009",
          "display": "toedieningsafspraak"
        } ]
      },
      "medicationReference": {
        "reference": "urn:uuid:c33f26f2-6a95-11ec-0000-020000000000",
        "type": "Medication",
        "display": "FERROFUMARAAT TEVA TABLET 200MG"
      },
      "subject": {
        "reference": "urn:uuid:c33f24f4-6a95-11ec-0000-020000000000",
        "type": "Patient",
        "display": "Patient, C. XXX_Dongen"
      },
      "performer": [ {
        "actor": {
          "reference": "urn:uuid:c33f003c-6a95-11ec-0000-020000000000",
          "type": "Organization",
          "display": "Healthcare provider (organization), Apotheek De Gulle Gaper"
        }
      } ],
      "authorizingPrescription": [ {
        "type": "MedicationRequest",
        "identifier": {
          "system": "urn:oid:2.16.840.1.113883.2.4.3.11.999.77.16076005.1",
          "value": "MBH_200_wijzigen_verlaging_MA_start"
        },
        "display": "relatie naar medicatieafspraak met identificatie: MBH_200_wijzigen_verlaging_MA_start || 2.16.840.1.113883.2.4.3.11.999.77.16076005.1"
      } ],
      "dosageInstruction": [ {
        "timing": {
          "repeat": {
            "frequency": 1,
            "period": 1,
            "periodUnit": "wk"
          }
        },
        "route": {
          "coding": [ {
            "system": "urn:oid:2.16.840.1.113883.2.4.4.9",
            "code": "9",
            "display": "Oraal"
          } ]
        },
        "doseAndRate": [ {
          "doseQuantity": {
            "extension": [ {
              "url": "http://hl7.org/fhir/StructureDefinition/iso21090-PQ-translation",
              "valueQuantity": {
                "value": 1,
                "unit": "stuk",
                "system": "urn:oid:2.16.840.1.113883.2.4.4.1.900.2",
                "code": "245"
              }
            } ],
            "value": 1,
            "unit": "stuk",
            "system": "http://unitsofmeasure.org",
            "code": "1"
          }
        } ]
      } ]
    },
    "request": {
      "method": "POST",
      "url": "MedicationDispense"
    }
  }, {
    "fullUrl": "urn:uuid:c33f25c6-6a95-11ec-0000-020000000000",
    "resource": {
      "resourceType": "MedicationDispense",
      "meta": {
        "profile": [ "http://nictiz.nl/fhir/StructureDefinition/mp-AdministrationAgreement" ]
      },
      "text": {
        "status": "extensions",
        "div": "<div xmlns=\"http://www.w3.org/1999/xhtml\">\n            <table>\n              <caption>MedicationDispense. Subject: Patient, C. XXX_Dongen. Id: MBH_200_wijzigen_verlaging_TA_wijzigingzonderMVE (urn:oid:2.16.840.1.113883.2.4.3.11.999.77.422037009.1), Categorie: <span title=\"toedieningsafspraak (422037009 - SNOMED CT)\">toedieningsafspraak</span>, Status: onbekend<span style=\"display: block;\">Uitvoerende: Healthcare provider (organization), Apotheek Jansen en Co</span>\n              </caption>\n              <tbody>\n                <tr>\n                  <th>Gebaseerd op</th>\n                  <td>relatie naar medicatieafspraak met identificatie: MBH_200_wijzigen_verlaging_MA_wijzigingzonderVV || 2.16.840.1.113883.2.4.3.11.999.77.16076005.1 (Id: MBH_200_wijzigen_verlaging_MA_wijzigingzonderVV (urn:oid:2.16.840.1.113883.2.4.3.11.999.77.16076005.1))</td>\n                </tr>\n                <tr>\n                  <th>Medicatie</th>\n                  <td>FERROFUMARAAT TEVA TABLET 200MG</td>\n                </tr>\n                <tr>\n                  <th>Doseerinstructie</th>\n                  <td>\n                    <div>Timing: <div>eenmalig per week</div>\n                    </div>\n                    <div>Toedieningsweg: <span title=\"Oraal (9 - G-Standaard thesaurus subtabel 0007)\">Oraal</span>\n                    </div>\n                    <div>Dosering: doseAndRate TODO</div>\n                  </td>\n                </tr>\n              </tbody>\n            </table>\n          </div>"
      },
      "extension": [ {
        "url": "http://nictiz.nl/fhir/StructureDefinition/ext-AdministrationAgreement.AdministrationAgreementDateTime",
        "valueDateTime": "${DATE, T, D, -60}T09:10:00+02:00"
      }, {
        "url": "http://nictiz.nl/fhir/StructureDefinition/ext-RenderedDosageInstruction",
        "valueString": "Vanaf T - 1 dag, tot en met T + 14 dagen, 1 maal per week 1 stuk, Oraal"
      }, {
        "url": "http://nictiz.nl/fhir/StructureDefinition/ext-TimeInterval.Period",
        "valuePeriod": {
          "start": "${DATE, T, D, -60}T00:00:00+02:00",
          "end": "${DATE, T, D, -60}T23:59:59+02:00"
        }
      }, {
        "url": "http://nictiz.nl/fhir/StructureDefinition/ext-PharmaceuticalTreatment.Identifier",
        "valueIdentifier": {
          "system": "urn:oid:2.16.840.1.113883.2.4.3.11.999.77.1.1",
          "value": "MBH_200_wijzigen_verlaging"
        }
      } ],
      "identifier": [ {
        "system": "urn:oid:2.16.840.1.113883.2.4.3.11.999.77.422037009.1",
        "value": "MBH_200_wijzigen_verlaging_TA_wijzigingzonderMVE"
      } ],
      "status": "unknown",
      "category": {
        "coding": [ {
          "system": "http://snomed.info/sct",
          "code": "422037009",
          "display": "toedieningsafspraak"
        } ]
      },
      "medicationReference": {
        "reference": "urn:uuid:c33f26f2-6a95-11ec-0000-020000000000",
        "type": "Medication",
        "display": "FERROFUMARAAT TEVA TABLET 200MG"
      },
      "subject": {
        "reference": "urn:uuid:c33f24f4-6a95-11ec-0000-020000000000",
        "type": "Patient",
        "display": "Patient, C. XXX_Dongen"
      },
      "performer": [ {
        "actor": {
          "reference": "urn:uuid:c33f0078-6a95-11ec-0000-020000000000",
          "type": "Organization",
          "display": "Healthcare provider (organization), Apotheek Jansen en Co"
        }
      } ],
      "authorizingPrescription": [ {
        "type": "MedicationRequest",
        "identifier": {
          "system": "urn:oid:2.16.840.1.113883.2.4.3.11.999.77.16076005.1",
          "value": "MBH_200_wijzigen_verlaging_MA_wijzigingzonderVV"
        },
        "display": "relatie naar medicatieafspraak met identificatie: MBH_200_wijzigen_verlaging_MA_wijzigingzonderVV || 2.16.840.1.113883.2.4.3.11.999.77.16076005.1"
      } ],
      "dosageInstruction": [ {
        "timing": {
          "repeat": {
            "frequency": 1,
            "period": 1,
            "periodUnit": "wk"
          }
        },
        "route": {
          "coding": [ {
            "system": "urn:oid:2.16.840.1.113883.2.4.4.9",
            "code": "9",
            "display": "Oraal"
          } ]
        },
        "doseAndRate": [ {
          "doseQuantity": {
            "extension": [ {
              "url": "http://hl7.org/fhir/StructureDefinition/iso21090-PQ-translation",
              "valueQuantity": {
                "value": 1,
                "unit": "stuk",
                "system": "urn:oid:2.16.840.1.113883.2.4.4.1.900.2",
                "code": "245"
              }
            } ],
            "value": 1,
            "unit": "stuk",
            "system": "http://unitsofmeasure.org",
            "code": "1"
          }
        } ]
      } ]
    },
    "request": {
      "method": "POST",
      "url": "MedicationDispense"
    }
  }, {
    "fullUrl": "urn:uuid:c33f25e4-6a95-11ec-0000-020000000000",
    "resource": {
      "resourceType": "MedicationDispense",
      "meta": {
        "profile": [ "http://nictiz.nl/fhir/StructureDefinition/mp-AdministrationAgreement" ]
      },
      "text": {
        "status": "extensions",
        "div": "<div xmlns=\"http://www.w3.org/1999/xhtml\">\n            <table>\n              <caption>MedicationDispense. Subject: Patient, C. XXX_Dongen. Id: MBH_200_wijzigen_verlaging_TA_techstaken (urn:oid:2.16.840.1.113883.2.4.3.11.999.77.422037009.1), Categorie: <span title=\"toedieningsafspraak (422037009 - SNOMED CT)\">toedieningsafspraak</span>, Status: onbekend<span style=\"display: block;\">Uitvoerende: Healthcare provider (organization), Apotheek Jansen en Co</span>\n              </caption>\n              <tbody>\n                <tr>\n                  <th>Gebaseerd op</th>\n                  <td>relatie naar medicatieafspraak met identificatie: MBH_200_wijzigen_verlaging_MA_techstaken || 2.16.840.1.113883.2.4.3.11.999.77.16076005.1 (Id: MBH_200_wijzigen_verlaging_MA_techstaken (urn:oid:2.16.840.1.113883.2.4.3.11.999.77.16076005.1))</td>\n                </tr>\n                <tr>\n                  <th>Medicatie</th>\n                  <td>FERROFUMARAAT TEVA TABLET 200MG</td>\n                </tr>\n                <tr>\n                  <th>Doseerinstructie</th>\n                  <td>\n                    <div>Timing: <div>2 maal per week</div>\n                    </div>\n                    <div>Toedieningsweg: <span title=\"Oraal (9 - G-Standaard thesaurus subtabel 0007)\">Oraal</span>\n                    </div>\n                    <div>Dosering: doseAndRate TODO</div>\n                  </td>\n                </tr>\n              </tbody>\n            </table>\n          </div>"
      },
      "extension": [ {
        "url": "http://nictiz.nl/fhir/StructureDefinition/ext-AdministrationAgreement.AdministrationAgreementDateTime",
        "valueDateTime": "${DATE, T, D, -60}T09:10:00+02:00"
      }, {
        "url": "http://nictiz.nl/fhir/StructureDefinition/ext-RenderedDosageInstruction",
        "valueString": "Vanaf T - 13 dagen, tot en met T - 2 dagen, 2 maal per week 1 stuk, Oraal, definitief gestopt"
      }, {
        "url": "http://nictiz.nl/fhir/StructureDefinition/ext-TimeInterval.Period",
        "valuePeriod": {
          "start": "${DATE, T, D, -60}T00:00:00+02:00",
          "end": "${DATE, T, D, -60}T23:59:59+02:00"
        }
      }, {
        "url": "http://nictiz.nl/fhir/StructureDefinition/ext-PharmaceuticalTreatment.Identifier",
        "valueIdentifier": {
          "system": "urn:oid:2.16.840.1.113883.2.4.3.11.999.77.1.1",
          "value": "MBH_200_wijzigen_verlaging"
        }
      } ],
      "modifierExtension": [ {
        "url": "http://nictiz.nl/fhir/StructureDefinition/ext-StopType",
        "valueCodeableConcept": {
          "coding": [ {
            "system": "http://snomed.info/sct",
            "code": "113371000146109",
            "display": "definitief gestopt met medicatie"
          } ]
        }
      } ],
      "identifier": [ {
        "system": "urn:oid:2.16.840.1.113883.2.4.3.11.999.77.422037009.1",
        "value": "MBH_200_wijzigen_verlaging_TA_techstaken"
      } ],
      "status": "unknown",
      "category": {
        "coding": [ {
          "system": "http://snomed.info/sct",
          "code": "422037009",
          "display": "toedieningsafspraak"
        } ]
      },
      "medicationReference": {
        "reference": "urn:uuid:c33f26f2-6a95-11ec-0000-020000000000",
        "type": "Medication",
        "display": "FERROFUMARAAT TEVA TABLET 200MG"
      },
      "subject": {
        "reference": "urn:uuid:c33f24f4-6a95-11ec-0000-020000000000",
        "type": "Patient",
        "display": "Patient, C. XXX_Dongen"
      },
      "performer": [ {
        "actor": {
          "reference": "urn:uuid:c33f0078-6a95-11ec-0000-020000000000",
          "type": "Organization",
          "display": "Healthcare provider (organization), Apotheek Jansen en Co"
        }
      } ],
      "authorizingPrescription": [ {
        "type": "MedicationRequest",
        "identifier": {
          "system": "urn:oid:2.16.840.1.113883.2.4.3.11.999.77.16076005.1",
          "value": "MBH_200_wijzigen_verlaging_MA_techstaken"
        },
        "display": "relatie naar medicatieafspraak met identificatie: MBH_200_wijzigen_verlaging_MA_techstaken || 2.16.840.1.113883.2.4.3.11.999.77.16076005.1"
      } ],
      "dosageInstruction": [ {
        "timing": {
          "repeat": {
            "frequency": 2,
            "period": 1,
            "periodUnit": "wk"
          }
        },
        "route": {
          "coding": [ {
            "system": "urn:oid:2.16.840.1.113883.2.4.4.9",
            "code": "9",
            "display": "Oraal"
          } ]
        },
        "doseAndRate": [ {
          "doseQuantity": {
            "extension": [ {
              "url": "http://hl7.org/fhir/StructureDefinition/iso21090-PQ-translation",
              "valueQuantity": {
                "value": 1,
                "unit": "stuk",
                "system": "urn:oid:2.16.840.1.113883.2.4.4.1.900.2",
                "code": "245"
              }
            } ],
            "value": 1,
            "unit": "stuk",
            "system": "http://unitsofmeasure.org",
            "code": "1"
          }
        } ]
      } ]
    },
    "request": {
      "method": "POST",
      "url": "MedicationDispense"
    }
  }, {
    "fullUrl": "urn:uuid:c33f2602-6a95-11ec-0000-020000000000",
    "resource": {
      "resourceType": "MedicationDispense",
      "meta": {
        "profile": [ "http://nictiz.nl/fhir/StructureDefinition/mp-AdministrationAgreement" ]
      },
      "text": {
        "status": "extensions",
        "div": "<div xmlns=\"http://www.w3.org/1999/xhtml\">\n            <table>\n              <caption>MedicationDispense. Subject: Patient, C. XXX_Dongen. Id: MBH_200_onderbreken_TA_start (urn:oid:2.16.840.1.113883.2.4.3.11.999.77.422037009.1), Categorie: <span title=\"toedieningsafspraak (422037009 - SNOMED CT)\">toedieningsafspraak</span>, Status: onbekend<span style=\"display: block;\">Uitvoerende: Healthcare provider (organization), Apotheek De Gulle Gaper</span>\n              </caption>\n              <tbody>\n                <tr>\n                  <th>Gebaseerd op</th>\n                  <td>relatie naar medicatieafspraak met identificatie: MBH_200_onderbreken_MA_start || 2.16.840.1.113883.2.4.3.11.999.77.16076005.1 (Id: MBH_200_onderbreken_MA_start (urn:oid:2.16.840.1.113883.2.4.3.11.999.77.16076005.1))</td>\n                </tr>\n                <tr>\n                  <th>Medicatie</th>\n                  <td>BROXIL CAPSULE 500MG</td>\n                </tr>\n                <tr>\n                  <th>Doseerinstructie</th>\n                  <td>\n                    <div>Timing: <div>3 maal per dag</div>\n                    </div>\n                    <div>Toedieningsweg: <span title=\"Oraal (9 - G-Standaard thesaurus subtabel 0007)\">Oraal</span>\n                    </div>\n                    <div>Dosering: doseAndRate TODO</div>\n                  </td>\n                </tr>\n              </tbody>\n            </table>\n          </div>"
      },
      "extension": [ {
        "url": "http://nictiz.nl/fhir/StructureDefinition/ext-AdministrationAgreement.AdministrationAgreementDateTime",
        "valueDateTime": "${DATE, T, D, -60}T09:06:00+02:00"
      }, {
        "url": "http://nictiz.nl/fhir/StructureDefinition/ext-RenderedDosageInstruction",
        "valueString": "Vanaf T - 4 dagen, tot en met T + 5 dagen, 3 maal per dag 1 stuk, Oraal"
      }, {
        "url": "http://nictiz.nl/fhir/StructureDefinition/ext-TimeInterval.Period",
        "valuePeriod": {
          "start": "${DATE, T, D, -60}T00:00:00+02:00",
          "end": "${DATE, T, D, -60}T23:59:59+02:00"
        }
      }, {
        "url": "http://nictiz.nl/fhir/StructureDefinition/ext-PharmaceuticalTreatment.Identifier",
        "valueIdentifier": {
          "system": "urn:oid:2.16.840.1.113883.2.4.3.11.999.77.1.1",
          "value": "MBH_200_onderbreken"
        }
      } ],
      "identifier": [ {
        "system": "urn:oid:2.16.840.1.113883.2.4.3.11.999.77.422037009.1",
        "value": "MBH_200_onderbreken_TA_start"
      } ],
      "status": "unknown",
      "category": {
        "coding": [ {
          "system": "http://snomed.info/sct",
          "code": "422037009",
          "display": "toedieningsafspraak"
        } ]
      },
      "medicationReference": {
        "reference": "urn:uuid:c33f26d4-6a95-11ec-0000-020000000000",
        "type": "Medication",
        "display": "BROXIL CAPSULE 500MG"
      },
      "subject": {
        "reference": "urn:uuid:c33f24f4-6a95-11ec-0000-020000000000",
        "type": "Patient",
        "display": "Patient, C. XXX_Dongen"
      },
      "performer": [ {
        "actor": {
          "reference": "urn:uuid:c33f003c-6a95-11ec-0000-020000000000",
          "type": "Organization",
          "display": "Healthcare provider (organization), Apotheek De Gulle Gaper"
        }
      } ],
      "authorizingPrescription": [ {
        "type": "MedicationRequest",
        "identifier": {
          "system": "urn:oid:2.16.840.1.113883.2.4.3.11.999.77.16076005.1",
          "value": "MBH_200_onderbreken_MA_start"
        },
        "display": "relatie naar medicatieafspraak met identificatie: MBH_200_onderbreken_MA_start || 2.16.840.1.113883.2.4.3.11.999.77.16076005.1"
      } ],
      "dosageInstruction": [ {
        "timing": {
          "repeat": {
            "frequency": 3,
            "period": 1,
            "periodUnit": "d"
          }
        },
        "route": {
          "coding": [ {
            "system": "urn:oid:2.16.840.1.113883.2.4.4.9",
            "code": "9",
            "display": "Oraal"
          } ]
        },
        "doseAndRate": [ {
          "doseQuantity": {
            "extension": [ {
              "url": "http://hl7.org/fhir/StructureDefinition/iso21090-PQ-translation",
              "valueQuantity": {
                "value": 1,
                "unit": "stuk",
                "system": "urn:oid:2.16.840.1.113883.2.4.4.1.900.2",
                "code": "245"
              }
            } ],
            "value": 1,
            "unit": "stuk",
            "system": "http://unitsofmeasure.org",
            "code": "1"
          }
        } ]
      } ]
    },
    "request": {
      "method": "POST",
      "url": "MedicationDispense"
    }
  }, {
    "fullUrl": "urn:uuid:c33f2620-6a95-11ec-0000-020000000000",
    "resource": {
      "resourceType": "MedicationDispense",
      "meta": {
        "profile": [ "http://nictiz.nl/fhir/StructureDefinition/mp-AdministrationAgreement" ]
      },
      "text": {
        "status": "extensions",
        "div": "<div xmlns=\"http://www.w3.org/1999/xhtml\">\n            <table>\n              <caption>MedicationDispense. Subject: Patient, C. XXX_Dongen. Id: MBH_200_onderbreken_TA_onderbreken (urn:oid:2.16.840.1.113883.2.4.3.11.999.77.422037009.1), Categorie: <span title=\"toedieningsafspraak (422037009 - SNOMED CT)\">toedieningsafspraak</span>, Status: onbekend<span style=\"display: block;\">Uitvoerende: Healthcare provider (organization), Apotheek Jansen en Co</span>\n              </caption>\n              <tbody>\n                <tr>\n                  <th>Gebaseerd op</th>\n                  <td>relatie naar medicatieafspraak met identificatie: MBH_200_onderbreken_MA_onderbreken || 2.16.840.1.113883.2.4.3.11.999.77.16076005.1 (Id: MBH_200_onderbreken_MA_onderbreken (urn:oid:2.16.840.1.113883.2.4.3.11.999.77.16076005.1))</td>\n                </tr>\n                <tr>\n                  <th>Medicatie</th>\n                  <td>BROXIL CAPSULE 500MG</td>\n                </tr>\n                <tr>\n                  <th>Doseerinstructie</th>\n                  <td>\n                    <div>Timing: <div>3 maal per dag</div>\n                    </div>\n                    <div>Toedieningsweg: <span title=\"Oraal (9 - G-Standaard thesaurus subtabel 0007)\">Oraal</span>\n                    </div>\n                    <div>Dosering: doseAndRate TODO</div>\n                  </td>\n                </tr>\n              </tbody>\n            </table>\n          </div>"
      },
      "extension": [ {
        "url": "http://nictiz.nl/fhir/StructureDefinition/ext-AdministrationAgreement.AdministrationAgreementDateTime",
        "valueDateTime": "${DATE, T, D, -60}T19:12:00+02:00"
      }, {
        "url": "http://nictiz.nl/fhir/StructureDefinition/ext-RenderedDosageInstruction",
        "valueString": "Vanaf T - 4 dagen, tot en met T - 1 dag, 3 maal per dag 1 stuk, Oraal, tijdelijk gestopt"
      }, {
        "url": "http://nictiz.nl/fhir/StructureDefinition/ext-TimeInterval.Period",
        "valuePeriod": {
          "start": "${DATE, T, D, -60}T00:00:00+02:00",
          "end": "${DATE, T, D, -60}T23:59:59+02:00"
        }
      }, {
        "url": "http://nictiz.nl/fhir/StructureDefinition/ext-PharmaceuticalTreatment.Identifier",
        "valueIdentifier": {
          "system": "urn:oid:2.16.840.1.113883.2.4.3.11.999.77.1.1",
          "value": "MBH_200_onderbreken"
        }
      } ],
      "modifierExtension": [ {
        "url": "http://nictiz.nl/fhir/StructureDefinition/ext-StopType",
        "valueCodeableConcept": {
          "coding": [ {
            "system": "http://snomed.info/sct",
            "code": "113381000146106",
            "display": "tijdelijk gestopt met medicatie"
          } ]
        }
      } ],
      "identifier": [ {
        "system": "urn:oid:2.16.840.1.113883.2.4.3.11.999.77.422037009.1",
        "value": "MBH_200_onderbreken_TA_onderbreken"
      } ],
      "status": "unknown",
      "category": {
        "coding": [ {
          "system": "http://snomed.info/sct",
          "code": "422037009",
          "display": "toedieningsafspraak"
        } ]
      },
      "medicationReference": {
        "reference": "urn:uuid:c33f26d4-6a95-11ec-0000-020000000000",
        "type": "Medication",
        "display": "BROXIL CAPSULE 500MG"
      },
      "subject": {
        "reference": "urn:uuid:c33f24f4-6a95-11ec-0000-020000000000",
        "type": "Patient",
        "display": "Patient, C. XXX_Dongen"
      },
      "performer": [ {
        "actor": {
          "reference": "urn:uuid:c33f0078-6a95-11ec-0000-020000000000",
          "type": "Organization",
          "display": "Healthcare provider (organization), Apotheek Jansen en Co"
        }
      } ],
      "authorizingPrescription": [ {
        "type": "MedicationRequest",
        "identifier": {
          "system": "urn:oid:2.16.840.1.113883.2.4.3.11.999.77.16076005.1",
          "value": "MBH_200_onderbreken_MA_onderbreken"
        },
        "display": "relatie naar medicatieafspraak met identificatie: MBH_200_onderbreken_MA_onderbreken || 2.16.840.1.113883.2.4.3.11.999.77.16076005.1"
      } ],
      "dosageInstruction": [ {
        "timing": {
          "repeat": {
            "frequency": 3,
            "period": 1,
            "periodUnit": "d"
          }
        },
        "route": {
          "coding": [ {
            "system": "urn:oid:2.16.840.1.113883.2.4.4.9",
            "code": "9",
            "display": "Oraal"
          } ]
        },
        "doseAndRate": [ {
          "doseQuantity": {
            "extension": [ {
              "url": "http://hl7.org/fhir/StructureDefinition/iso21090-PQ-translation",
              "valueQuantity": {
                "value": 1,
                "unit": "stuk",
                "system": "urn:oid:2.16.840.1.113883.2.4.4.1.900.2",
                "code": "245"
              }
            } ],
            "value": 1,
            "unit": "stuk",
            "system": "http://unitsofmeasure.org",
            "code": "1"
          }
        } ]
      } ]
    },
    "request": {
      "method": "POST",
      "url": "MedicationDispense"
    }
  }, {
    "fullUrl": "urn:uuid:c33f263e-6a95-11ec-0000-020000000000",
    "resource": {
      "resourceType": "MedicationDispense",
      "meta": {
        "profile": [ "http://nictiz.nl/fhir/StructureDefinition/mp-AdministrationAgreement" ]
      },
      "text": {
        "status": "extensions",
        "div": "<div xmlns=\"http://www.w3.org/1999/xhtml\">\n            <table>\n              <caption>MedicationDispense. Subject: Patient, C. XXX_Dongen. Id: MBH_200_TAwijzigen_TA_start (urn:oid:2.16.840.1.113883.2.4.3.11.999.77.422037009.1), Categorie: <span title=\"toedieningsafspraak (422037009 - SNOMED CT)\">toedieningsafspraak</span>, Status: onbekend<span style=\"display: block;\">Uitvoerende: Healthcare provider (organization), Apotheek De Gulle Gaper</span>\n              </caption>\n              <tbody>\n                <tr>\n                  <th>Gebaseerd op</th>\n                  <td>relatie naar medicatieafspraak met identificatie: MBH_200_TAwijzigen_MA || 2.16.840.1.113883.2.4.3.11.999.77.16076005.1 (Id: MBH_200_TAwijzigen_MA (urn:oid:2.16.840.1.113883.2.4.3.11.999.77.16076005.1))</td>\n                </tr>\n                <tr>\n                  <th>Medicatie</th>\n                  <td>PANTOZOL TABLET MSR 40MG</td>\n                </tr>\n                <tr>\n                  <th>Doseerinstructie</th>\n                  <td>\n                    <div>Timing: <div>eenmalig per dag</div>\n                    </div>\n                    <div>Toedieningsweg: <span title=\"oraal (9 - G-Standaard thesaurus subtabel 0007)\">oraal</span>\n                    </div>\n                    <div>Dosering: doseAndRate TODO</div>\n                  </td>\n                </tr>\n              </tbody>\n            </table>\n          </div>"
      },
      "extension": [ {
        "url": "http://nictiz.nl/fhir/StructureDefinition/ext-AdministrationAgreement.AdministrationAgreementDateTime",
        "valueDateTime": "${DATE, T, D, -60}T12:30:00+02:00"
      }, {
        "url": "http://nictiz.nl/fhir/StructureDefinition/ext-RenderedDosageInstruction",
        "valueString": "Vanaf T - 60 dagen, gedurende 28 dagen, 1 maal per dag 1 stuk, oraal"
      }, {
        "url": "http://nictiz.nl/fhir/StructureDefinition/ext-TimeInterval.Period",
        "valuePeriod": {
          "extension": [ {
            "url": "http://nictiz.nl/fhir/StructureDefinition/ext-TimeInterval.Duration",
            "valueDuration": {
              "value": 28,
              "unit": "dag",
              "system": "http://unitsofmeasure.org",
              "code": "d"
            }
          } ],
          "start": "${DATE, T, D, -60}T00:00:00+02:00"
        }
      }, {
        "url": "http://nictiz.nl/fhir/StructureDefinition/ext-PharmaceuticalTreatment.Identifier",
        "valueIdentifier": {
          "system": "urn:oid:2.16.840.1.113883.2.4.3.11.999.77.1.1",
          "value": "MBH_200_TAwijzigen"
        }
      } ],
      "identifier": [ {
        "system": "urn:oid:2.16.840.1.113883.2.4.3.11.999.77.422037009.1",
        "value": "MBH_200_TAwijzigen_TA_start"
      } ],
      "status": "unknown",
      "category": {
        "coding": [ {
          "system": "http://snomed.info/sct",
          "code": "422037009",
          "display": "toedieningsafspraak"
        } ]
      },
      "medicationReference": {
        "reference": "urn:uuid:c33f0000-6a95-11ec-0000-020000000000",
        "type": "Medication",
        "display": "PANTOZOL TABLET MSR 40MG"
      },
      "subject": {
        "reference": "urn:uuid:c33f24f4-6a95-11ec-0000-020000000000",
        "type": "Patient",
        "display": "Patient, C. XXX_Dongen"
      },
      "performer": [ {
        "actor": {
          "reference": "urn:uuid:c33f003c-6a95-11ec-0000-020000000000",
          "type": "Organization",
          "display": "Healthcare provider (organization), Apotheek De Gulle Gaper"
        }
      } ],
      "authorizingPrescription": [ {
        "type": "MedicationRequest",
        "identifier": {
          "system": "urn:oid:2.16.840.1.113883.2.4.3.11.999.77.16076005.1",
          "value": "MBH_200_TAwijzigen_MA"
        },
        "display": "relatie naar medicatieafspraak met identificatie: MBH_200_TAwijzigen_MA || 2.16.840.1.113883.2.4.3.11.999.77.16076005.1"
      } ],
      "dosageInstruction": [ {
        "timing": {
          "repeat": {
            "frequency": 1,
            "period": 1,
            "periodUnit": "d"
          }
        },
        "route": {
          "coding": [ {
            "system": "urn:oid:2.16.840.1.113883.2.4.4.9",
            "code": "9",
            "display": "oraal"
          } ]
        },
        "doseAndRate": [ {
          "doseQuantity": {
            "extension": [ {
              "url": "http://hl7.org/fhir/StructureDefinition/iso21090-PQ-translation",
              "valueQuantity": {
                "value": 1,
                "unit": "stuk",
                "system": "urn:oid:2.16.840.1.113883.2.4.4.1.900.2",
                "code": "245"
              }
            } ],
            "value": 1,
            "unit": "stuk",
            "system": "http://unitsofmeasure.org",
            "code": "1"
          }
        } ]
      } ]
    },
    "request": {
      "method": "POST",
      "url": "MedicationDispense"
    }
  }, {
    "fullUrl": "urn:uuid:c33f265c-6a95-11ec-0000-020000000000",
    "resource": {
      "resourceType": "MedicationDispense",
      "meta": {
        "profile": [ "http://nictiz.nl/fhir/StructureDefinition/mp-AdministrationAgreement" ]
      },
      "text": {
        "status": "extensions",
        "div": "<div xmlns=\"http://www.w3.org/1999/xhtml\">\n            <table>\n              <caption>MedicationDispense. Subject: Patient, C. XXX_Dongen. Id: MBH_200_TAwijzigen_TA_techstaken (urn:oid:2.16.840.1.113883.2.4.3.11.999.77.422037009.1), Categorie: <span title=\"toedieningsafspraak (422037009 - SNOMED CT)\">toedieningsafspraak</span>, Status: onbekend<span style=\"display: block;\">Uitvoerende: Healthcare provider (organization), Apotheek De Gulle Gaper</span>\n              </caption>\n              <tbody>\n                <tr>\n                  <th>Gebaseerd op</th>\n                  <td>relatie naar medicatieafspraak met identificatie: MBH_200_TAwijzigen_MA || 2.16.840.1.113883.2.4.3.11.999.77.16076005.1 (Id: MBH_200_TAwijzigen_MA (urn:oid:2.16.840.1.113883.2.4.3.11.999.77.16076005.1))</td>\n                </tr>\n                <tr>\n                  <th>Medicatie</th>\n                  <td>PANTOZOL TABLET MSR 40MG</td>\n                </tr>\n                <tr>\n                  <th>Doseerinstructie</th>\n                  <td>\n                    <div>Timing: <div>eenmalig per dag</div>\n                    </div>\n                    <div>Toedieningsweg: <span title=\"Oraal (9 - G-Standaard thesaurus subtabel 0007)\">Oraal</span>\n                    </div>\n                    <div>Dosering: doseAndRate TODO</div>\n                  </td>\n                </tr>\n              </tbody>\n            </table>\n          </div>"
      },
      "extension": [ {
        "url": "http://nictiz.nl/fhir/StructureDefinition/ext-AdministrationAgreement.AdministrationAgreementDateTime",
        "valueDateTime": "${DATE, T, D, -60}T12:30:00+02:00"
      }, {
        "url": "http://nictiz.nl/fhir/StructureDefinition/ext-RenderedDosageInstruction",
        "valueString": "Vanaf T - 60 dagen, tot en met T - 51 dagen, 1 maal per dag 1 stuk, Oraal, definitief gestopt"
      }, {
        "url": "http://nictiz.nl/fhir/StructureDefinition/ext-TimeInterval.Period",
        "valuePeriod": {
          "start": "${DATE, T, D, -60}T00:00:00+02:00",
          "end": "${DATE, T, D, -60}T23:59:59+02:00"
        }
      }, {
        "url": "http://nictiz.nl/fhir/StructureDefinition/ext-PharmaceuticalTreatment.Identifier",
        "valueIdentifier": {
          "system": "urn:oid:2.16.840.1.113883.2.4.3.11.999.77.1.1",
          "value": "MBH_200_TAwijzigen"
        }
      } ],
      "modifierExtension": [ {
        "url": "http://nictiz.nl/fhir/StructureDefinition/ext-StopType",
        "valueCodeableConcept": {
          "coding": [ {
            "system": "http://snomed.info/sct",
            "code": "113371000146109",
            "display": "definitief gestopt met medicatie"
          } ]
        }
      } ],
      "identifier": [ {
        "system": "urn:oid:2.16.840.1.113883.2.4.3.11.999.77.422037009.1",
        "value": "MBH_200_TAwijzigen_TA_techstaken"
      } ],
      "status": "unknown",
      "category": {
        "coding": [ {
          "system": "http://snomed.info/sct",
          "code": "422037009",
          "display": "toedieningsafspraak"
        } ]
      },
      "medicationReference": {
        "reference": "urn:uuid:c33f0000-6a95-11ec-0000-020000000000",
        "type": "Medication",
        "display": "PANTOZOL TABLET MSR 40MG"
      },
      "subject": {
        "reference": "urn:uuid:c33f24f4-6a95-11ec-0000-020000000000",
        "type": "Patient",
        "display": "Patient, C. XXX_Dongen"
      },
      "performer": [ {
        "actor": {
          "reference": "urn:uuid:c33f003c-6a95-11ec-0000-020000000000",
          "type": "Organization",
          "display": "Healthcare provider (organization), Apotheek De Gulle Gaper"
        }
      } ],
      "authorizingPrescription": [ {
        "type": "MedicationRequest",
        "identifier": {
          "system": "urn:oid:2.16.840.1.113883.2.4.3.11.999.77.16076005.1",
          "value": "MBH_200_TAwijzigen_MA"
        },
        "display": "relatie naar medicatieafspraak met identificatie: MBH_200_TAwijzigen_MA || 2.16.840.1.113883.2.4.3.11.999.77.16076005.1"
      } ],
      "dosageInstruction": [ {
        "timing": {
          "repeat": {
            "frequency": 1,
            "period": 1,
            "periodUnit": "d"
          }
        },
        "route": {
          "coding": [ {
            "system": "urn:oid:2.16.840.1.113883.2.4.4.9",
            "code": "9",
            "display": "Oraal"
          } ]
        },
        "doseAndRate": [ {
          "doseQuantity": {
            "extension": [ {
              "url": "http://hl7.org/fhir/StructureDefinition/iso21090-PQ-translation",
              "valueQuantity": {
                "value": 1,
                "unit": "stuk",
                "system": "urn:oid:2.16.840.1.113883.2.4.4.1.900.2",
                "code": "245"
              }
            } ],
            "value": 1,
            "unit": "stuk",
            "system": "http://unitsofmeasure.org",
            "code": "1"
          }
        } ]
      } ]
    },
    "request": {
      "method": "POST",
      "url": "MedicationDispense"
    }
  }, {
    "fullUrl": "urn:uuid:c33f267a-6a95-11ec-0000-020000000000",
    "resource": {
      "resourceType": "MedicationDispense",
      "meta": {
        "profile": [ "http://nictiz.nl/fhir/StructureDefinition/mp-AdministrationAgreement" ]
      },
      "text": {
        "status": "extensions",
        "div": "<div xmlns=\"http://www.w3.org/1999/xhtml\">\n            <table>\n              <caption>MedicationDispense. Subject: Patient, C. XXX_Dongen. Id: MBH_200_TAwijzigen_TA_anderePRK (urn:oid:2.16.840.1.113883.2.4.3.11.999.77.422037009.1), Categorie: <span title=\"toedieningsafspraak (422037009 - SNOMED CT)\">toedieningsafspraak</span>, Status: onbekend<span style=\"display: block;\">Uitvoerende: Healthcare provider (organization), Apotheek De Gulle Gaper</span>\n              </caption>\n              <tbody>\n                <tr>\n                  <th>Gebaseerd op</th>\n                  <td>relatie naar medicatieafspraak met identificatie: MBH_200_TAwijzigen_MA || 2.16.840.1.113883.2.4.3.11.999.77.16076005.1 (Id: MBH_200_TAwijzigen_MA (urn:oid:2.16.840.1.113883.2.4.3.11.999.77.16076005.1))</td>\n                </tr>\n                <tr>\n                  <th>Medicatie</th>\n                  <td>PANTOPRAZOL TABLET MSR 20MG</td>\n                </tr>\n                <tr>\n                  <th>Doseerinstructie</th>\n                  <td>\n                    <div>Timing: <div>2 maal per dag</div>\n                    </div>\n                    <div>Toedieningsweg: <span title=\"oraal (9 - G-Standaard thesaurus subtabel 0007)\">oraal</span>\n                    </div>\n                    <div>Dosering: doseAndRate TODO</div>\n                  </td>\n                </tr>\n              </tbody>\n            </table>\n          </div>"
      },
      "extension": [ {
        "url": "http://nictiz.nl/fhir/StructureDefinition/ext-AdministrationAgreement.ReasonModificationOrDiscontinuation",
        "valueCodeableConcept": {
          "coding": [ {
            "system": "http://snomed.info/sct",
            "code": "182856006",
            "display": "geneesmiddel niet voorradig"
          } ]
        }
      }, {
        "url": "http://nictiz.nl/fhir/StructureDefinition/ext-AdministrationAgreement.AdministrationAgreementDateTime",
        "valueDateTime": "${DATE, T, D, -60}T12:35:00+02:00"
      }, {
        "url": "http://nictiz.nl/fhir/StructureDefinition/ext-RenderedDosageInstruction",
        "valueString": "Vanaf T - 50 dagen, gedurende 18 dagen, 2 maal per dag 1 stuk, oraal"
      }, {
        "url": "http://nictiz.nl/fhir/StructureDefinition/ext-TimeInterval.Period",
        "valuePeriod": {
          "extension": [ {
            "url": "http://nictiz.nl/fhir/StructureDefinition/ext-TimeInterval.Duration",
            "valueDuration": {
              "value": 18,
              "unit": "dag",
              "system": "http://unitsofmeasure.org",
              "code": "d"
            }
          } ],
          "start": "${DATE, T, D, -60}T00:00:00+02:00"
        }
      }, {
        "url": "http://nictiz.nl/fhir/StructureDefinition/ext-PharmaceuticalTreatment.Identifier",
        "valueIdentifier": {
          "system": "urn:oid:2.16.840.1.113883.2.4.3.11.999.77.1.1",
          "value": "MBH_200_TAwijzigen"
        }
      } ],
      "identifier": [ {
        "system": "urn:oid:2.16.840.1.113883.2.4.3.11.999.77.422037009.1",
        "value": "MBH_200_TAwijzigen_TA_anderePRK"
      } ],
      "status": "unknown",
      "category": {
        "coding": [ {
          "system": "http://snomed.info/sct",
          "code": "422037009",
          "display": "toedieningsafspraak"
        } ]
      },
      "medicationReference": {
        "reference": "urn:uuid:c33f001e-6a95-11ec-0000-020000000000",
        "type": "Medication",
        "display": "PANTOPRAZOL TABLET MSR 20MG"
      },
      "subject": {
        "reference": "urn:uuid:c33f24f4-6a95-11ec-0000-020000000000",
        "type": "Patient",
        "display": "Patient, C. XXX_Dongen"
      },
      "performer": [ {
        "actor": {
          "reference": "urn:uuid:c33f003c-6a95-11ec-0000-020000000000",
          "type": "Organization",
          "display": "Healthcare provider (organization), Apotheek De Gulle Gaper"
        }
      } ],
      "authorizingPrescription": [ {
        "type": "MedicationRequest",
        "identifier": {
          "system": "urn:oid:2.16.840.1.113883.2.4.3.11.999.77.16076005.1",
          "value": "MBH_200_TAwijzigen_MA"
        },
        "display": "relatie naar medicatieafspraak met identificatie: MBH_200_TAwijzigen_MA || 2.16.840.1.113883.2.4.3.11.999.77.16076005.1"
      } ],
      "dosageInstruction": [ {
        "timing": {
          "repeat": {
            "frequency": 2,
            "period": 1,
            "periodUnit": "d"
          }
        },
        "route": {
          "coding": [ {
            "system": "urn:oid:2.16.840.1.113883.2.4.4.9",
            "code": "9",
            "display": "oraal"
          } ]
        },
        "doseAndRate": [ {
          "doseQuantity": {
            "extension": [ {
              "url": "http://hl7.org/fhir/StructureDefinition/iso21090-PQ-translation",
              "valueQuantity": {
                "value": 1,
                "unit": "stuk",
                "system": "urn:oid:2.16.840.1.113883.2.4.4.1.900.2",
                "code": "245"
              }
            } ],
            "value": 1,
            "unit": "stuk",
            "system": "http://unitsofmeasure.org",
            "code": "1"
          }
        } ]
      } ]
    },
    "request": {
      "method": "POST",
      "url": "MedicationDispense"
    }
  }, {
    "fullUrl": "urn:uuid:c33f24f4-6a95-11ec-0000-020000000000",
    "resource": {
      "resourceType": "Patient",
      "meta": {
        "profile": [ "http://nictiz.nl/fhir/StructureDefinition/nl-core-Patient" ]
      },
      "text": {
        "status": "extensions",
        "div": "<div xmlns=\"http://www.w3.org/1999/xhtml\">\n            <div>Id 999900493 (BSN), C. XXX_Dongen, Vrouw, 23 oktober 1963</div>\n          </div>"
      },
      "identifier": [ {
        "system": "http://fhir.nl/fhir/NamingSystem/bsn",
        "value": "999900493"
      } ],
      "name": [ {
        "extension": [ {
          "url": "http://hl7.org/fhir/StructureDefinition/humanname-assembly-order",
          "valueCode": "NL1"
        } ],
        "use": "official",
        "text": "C. XXX_Dongen",
        "family": "XXX_Dongen",
        "_family": {
          "extension": [ {
            "url": "http://hl7.org/fhir/StructureDefinition/humanname-own-name",
            "valueString": "XXX_Dongen"
          } ]
        },
        "given": [ "C." ],
        "_given": [ {
          "extension": [ {
            "url": "http://hl7.org/fhir/StructureDefinition/iso21090-EN-qualifier",
            "valueCode": "IN"
          } ]
        } ]
      } ],
      "gender": "female",
      "_gender": {
        "extension": [ {
          "url": "http://nictiz.nl/fhir/StructureDefinition/ext-CodeSpecification",
          "valueCodeableConcept": {
            "coding": [ {
              "system": "http://terminology.hl7.org/CodeSystem/v3-AdministrativeGender",
              "code": "F",
              "display": "Vrouw"
            } ]
          }
        } ]
      },
      "birthDate": "1963-10-23"
    },
    "request": {
      "method": "POST",
      "url": "Patient"
    }
  }, {
    "fullUrl": "urn:uuid:c33f003c-6a95-11ec-0000-020000000000",
    "resource": {
      "resourceType": "Organization",
      "meta": {
        "profile": [ "http://nictiz.nl/fhir/StructureDefinition/nl-core-HealthcareProvider-Organization" ]
      },
      "text": {
        "status": "extensions",
        "div": "<div xmlns=\"http://www.w3.org/1999/xhtml\">\n            <table>\n              <caption>Organisatie. Id: 01236578 (URA)</caption>\n              <tbody>\n                <tr>\n                  <th>Naam</th>\n                  <td>Apotheek De Gulle Gaper</td>\n                </tr>\n              </tbody>\n            </table>\n          </div>"
      },
      "identifier": [ {
        "system": "http://fhir.nl/fhir/NamingSystem/ura",
        "value": "01236578"
      } ],
      "name": "Apotheek De Gulle Gaper"
    },
    "request": {
      "method": "POST",
      "url": "Organization"
    }
  }, {
    "fullUrl": "urn:uuid:c33f0078-6a95-11ec-0000-020000000000",
    "resource": {
      "resourceType": "Organization",
      "meta": {
        "profile": [ "http://nictiz.nl/fhir/StructureDefinition/nl-core-HealthcareProvider-Organization" ]
      },
      "text": {
        "status": "extensions",
        "div": "<div xmlns=\"http://www.w3.org/1999/xhtml\">\n            <table>\n              <caption>Organisatie. Id: 99901111 (URA)</caption>\n              <tbody>\n                <tr>\n                  <th>Naam</th>\n                  <td>Apotheek Jansen en Co</td>\n                </tr>\n              </tbody>\n            </table>\n          </div>"
      },
      "identifier": [ {
        "system": "http://fhir.nl/fhir/NamingSystem/ura",
        "value": "99901111"
      } ],
      "name": "Apotheek Jansen en Co"
    },
    "request": {
      "method": "POST",
      "url": "Organization"
    }
  }, {
    "fullUrl": "urn:uuid:c33f2698-6a95-11ec-0000-020000000000",
    "resource": {
      "resourceType": "Medication",
      "meta": {
        "profile": [ "http://nictiz.nl/fhir/StructureDefinition/nl-core-PharmaceuticalProduct" ]
      },
      "text": {
        "status": "extensions",
        "div": "<div xmlns=\"http://www.w3.org/1999/xhtml\">\n            <table>\n              <tbody>\n                <tr>\n                  <th>Code</th>\n                  <td>\n                    <span title=\"ASPIRINE PROTECT EC TABLET MSR 100MG (1110837 - G-Standaard HPK)\">ASPIRINE PROTECT EC TABLET MSR 100MG</span>\n                  </td>\n                </tr>\n              </tbody>\n            </table>\n          </div>"
      },
      "code": {
        "coding": [ {
          "system": "urn:oid:2.16.840.1.113883.2.4.4.7",
          "code": "1110837",
          "display": "ASPIRINE PROTECT EC TABLET MSR 100MG",
          "userSelected": true
        }, {
          "system": "urn:oid:2.16.840.1.113883.2.4.4.10",
          "code": "49484",
          "display": "Acetylsalicylzuur tabletmsr 100mg"
        }, {
          "system": "urn:oid:2.16.840.1.113883.2.4.4.1",
          "code": "103039",
          "display": "Acetylsalicylzuur tabletmsr 100mg"
        } ],
        "text": "ASPIRINE PROTECT EC TABLET MSR 100MG"
      }
    },
    "request": {
      "method": "POST",
      "url": "Medication"
    }
  }, {
    "fullUrl": "urn:uuid:c33f26b6-6a95-11ec-0000-020000000000",
    "resource": {
      "resourceType": "Medication",
      "meta": {
        "profile": [ "http://nictiz.nl/fhir/StructureDefinition/nl-core-PharmaceuticalProduct" ]
      },
      "text": {
        "status": "extensions",
        "div": "<div xmlns=\"http://www.w3.org/1999/xhtml\">\n            <table>\n              <tbody>\n                <tr>\n                  <th>Code</th>\n                  <td>\n                    <span title=\"FUROSEMIDE SANDOZ TABLET 40MG (598860 - G-Standaard HPK)\">FUROSEMIDE SANDOZ TABLET 40MG</span>\n                  </td>\n                </tr>\n              </tbody>\n            </table>\n          </div>"
      },
      "code": {
        "coding": [ {
          "system": "urn:oid:2.16.840.1.113883.2.4.4.7",
          "code": "598860",
          "display": "FUROSEMIDE SANDOZ TABLET 40MG",
          "userSelected": true
        }, {
          "system": "urn:oid:2.16.840.1.113883.2.4.4.10",
          "code": "5967",
          "display": "FUROSEMIDE 40MG TABLET"
        }, {
          "system": "urn:oid:2.16.840.1.113883.2.4.4.1",
          "code": "16810",
          "display": "FUROSEMIDE 40MG TABLET"
        } ],
        "text": "FUROSEMIDE SANDOZ TABLET 40MG"
      }
    },
    "request": {
      "method": "POST",
      "url": "Medication"
    }
  }, {
    "fullUrl": "urn:uuid:c33f26d4-6a95-11ec-0000-020000000000",
    "resource": {
      "resourceType": "Medication",
      "meta": {
        "profile": [ "http://nictiz.nl/fhir/StructureDefinition/nl-core-PharmaceuticalProduct" ]
      },
      "text": {
        "status": "extensions",
        "div": "<div xmlns=\"http://www.w3.org/1999/xhtml\">\n            <table>\n              <tbody>\n                <tr>\n                  <th>Code</th>\n                  <td>\n                    <span title=\"BROXIL CAPSULE 500MG (425087 - G-Standaard HPK)\">BROXIL CAPSULE 500MG</span>\n                  </td>\n                </tr>\n              </tbody>\n            </table>\n          </div>"
      },
      "code": {
        "coding": [ {
          "system": "urn:oid:2.16.840.1.113883.2.4.4.7",
          "code": "425087",
          "display": "BROXIL CAPSULE 500MG",
          "userSelected": true
        }, {
          "system": "urn:oid:2.16.840.1.113883.2.4.4.10",
          "code": "17205",
          "display": "FENETICILLINE CAPSULE 500MG"
        }, {
          "system": "urn:oid:2.16.840.1.113883.2.4.4.1",
          "code": "41092",
          "display": "FENETICILLINE 500MG CAPSULE"
        } ],
        "text": "BROXIL CAPSULE 500MG"
      }
    },
    "request": {
      "method": "POST",
      "url": "Medication"
    }
  }, {
    "fullUrl": "urn:uuid:c33f26f2-6a95-11ec-0000-020000000000",
    "resource": {
      "resourceType": "Medication",
      "meta": {
        "profile": [ "http://nictiz.nl/fhir/StructureDefinition/nl-core-PharmaceuticalProduct" ]
      },
      "text": {
        "status": "extensions",
        "div": "<div xmlns=\"http://www.w3.org/1999/xhtml\">\n            <table>\n              <tbody>\n                <tr>\n                  <th>Code</th>\n                  <td>\n                    <span title=\"FERROFUMARAAT TEVA TABLET 200MG (869244 - G-Standaard HPK)\">FERROFUMARAAT TEVA TABLET 200MG</span>\n                  </td>\n                </tr>\n              </tbody>\n            </table>\n          </div>"
      },
      "code": {
        "coding": [ {
          "system": "urn:oid:2.16.840.1.113883.2.4.4.7",
          "code": "869244",
          "display": "FERROFUMARAAT TEVA TABLET 200MG",
          "userSelected": true
        }, {
          "system": "urn:oid:2.16.840.1.113883.2.4.4.10",
          "code": "42293",
          "display": "FERROFUMARAAT TABLET 200MG"
        }, {
          "system": "urn:oid:2.16.840.1.113883.2.4.4.1",
          "code": "15342",
          "display": "FERROFUMARAAT TABLET 200MG"
        } ],
        "text": "FERROFUMARAAT TEVA TABLET 200MG"
      }
    },
    "request": {
      "method": "POST",
      "url": "Medication"
    }
  }, {
    "fullUrl": "urn:uuid:c33f0000-6a95-11ec-0000-020000000000",
    "resource": {
      "resourceType": "Medication",
      "meta": {
        "profile": [ "http://nictiz.nl/fhir/StructureDefinition/nl-core-PharmaceuticalProduct" ]
      },
      "text": {
        "status": "extensions",
        "div": "<div xmlns=\"http://www.w3.org/1999/xhtml\">\n            <table>\n              <tbody>\n                <tr>\n                  <th>Code</th>\n                  <td>\n                    <span title=\"PANTOZOL TABLET MSR 40MG (878421 - G-Standaard HPK)\">PANTOZOL TABLET MSR 40MG</span>\n                  </td>\n                </tr>\n              </tbody>\n            </table>\n          </div>"
      },
      "code": {
        "coding": [ {
          "system": "urn:oid:2.16.840.1.113883.2.4.4.7",
          "code": "878421",
          "display": "PANTOZOL TABLET MSR 40MG",
          "userSelected": true
        }, {
          "system": "urn:oid:2.16.840.1.113883.2.4.4.10",
          "code": "43044",
          "display": "PANTOPRAZOL 40MG TABLET MSR"
        }, {
          "system": "urn:oid:2.16.840.1.113883.2.4.4.1",
          "code": "96938",
          "display": "PANTOPRAZOL 40MG TABLET MSR"
        } ],
        "text": "PANTOZOL TABLET MSR 40MG"
      }
    },
    "request": {
      "method": "POST",
      "url": "Medication"
    }
  }, {
    "fullUrl": "urn:uuid:c33f001e-6a95-11ec-0000-020000000000",
    "resource": {
      "resourceType": "Medication",
      "meta": {
        "profile": [ "http://nictiz.nl/fhir/StructureDefinition/nl-core-PharmaceuticalProduct" ]
      },
      "text": {
        "status": "extensions",
        "div": "<div xmlns=\"http://www.w3.org/1999/xhtml\">\n            <table>\n              <tbody>\n                <tr>\n                  <th>Code</th>\n                  <td>\n                    <span title=\"PANTOPRAZOL TABLET MSR 20MG (52272 - G-Standaard PRK)\">PANTOPRAZOL TABLET MSR 20MG</span>\n                  </td>\n                </tr>\n              </tbody>\n            </table>\n          </div>"
      },
      "code": {
        "coding": [ {
          "system": "urn:oid:2.16.840.1.113883.2.4.4.10",
          "code": "52272",
          "display": "PANTOPRAZOL TABLET MSR 20MG",
          "userSelected": true
        }, {
          "system": "urn:oid:2.16.840.1.113883.2.4.4.1",
          "code": "106275",
          "display": "PANTOPRAZOL TABLET MSR 20MG"
        } ],
        "text": "PANTOPRAZOL TABLET MSR 20MG"
      }
    },
    "request": {
      "method": "POST",
      "url": "Medication"
    }
  } ]
}