{
  "resourceType": "Bundle",
  "id": "mg-mp-mg-tst-MA-Scenarioset0-v20",
  "type": "transaction",
  "entry": [
    {
      "fullUrl": "urn:uuid:c33f20f8-6a95-11ec-0000-020000000000",
      "resource": {
        "resourceType": "MedicationRequest",
        "meta": {
          "profile": [
            "http://nictiz.nl/fhir/StructureDefinition/mp-MedicationAgreement"
          ]
        },
        "extension": [
          {
            "url": "http://nictiz.nl/fhir/StructureDefinition/ext-RenderedDosageInstruction",
            "valueString": "Vanaf T - 20 dagen, tot en met T + 9 dagen, 2 maal per dag 1 stuk, oraal"
          },
          {
            "url": "http://nictiz.nl/fhir/StructureDefinition/ext-TimeInterval.Period",
            "valuePeriod": {
              "start": "${DATE, T, D, -20}T00:00:00+02:00",
              "end": "${DATE, T, D, +9}T23:59:59+02:00"
            }
          },
          {
            "url": "http://nictiz.nl/fhir/StructureDefinition/ext-PharmaceuticalTreatment.Identifier",
            "valueIdentifier": {
              "system": "urn:oid:2.16.840.1.113883.2.4.3.11.999.77.1.1",
              "value": "MBH_200_QA1"
            }
          }
        ],
        "identifier": [
          {
            "system": "urn:oid:2.16.840.1.113883.2.4.3.11.999.77.16076005.1",
            "value": "MBH_200_QA1_MA"
          }
        ],
        "status": "unknown",
        "intent": "order",
        "category": [
          {
            "coding": [
              {
                "system": "http://snomed.info/sct",
                "code": "33633005",
                "display": "voorschrijven van geneesmiddel"
              }
            ]
          }
        ],
        "medicationReference": {
          "reference": "urn:uuid:c33f21ac-6a95-11ec-0000-020000000000",
          "type": "Medication",
          "display": "IBUPROFEN TABLET 600MG"
        },
        "subject": {
          "reference": "urn:uuid:c33f209e-6a95-11ec-0000-020000000000",
          "type": "Patient",
          "display": "Patient, R. van XXX_Sonnenberg"
        },
        "authoredOn": "${DATE, T, D, -20}T08:00:00+02:00",
        "requester": {
          "reference": "urn:uuid:c33f20bc-6a95-11ec-0000-020000000000",
          "type": "PractitionerRole",
          "display": "Healthcare professional (role), Peter van Pulver, Huisartsen, niet nader gespecificeerd"
        },
        "dosageInstruction": [
          {
            "timing": {
              "repeat": {
                "frequency": 2,
                "period": 1,
                "periodUnit": "d"
              }
            },
            "route": {
              "coding": [
                {
                  "system": "urn:oid:2.16.840.1.113883.2.4.4.9",
                  "code": "9",
                  "display": "oraal"
                }
              ]
            },
            "doseAndRate": [
              {
                "doseQuantity": {
                  "extension": [
                    {
                      "url": "http://hl7.org/fhir/StructureDefinition/iso21090-PQ-translation",
                      "valueQuantity": {
                        "value": 1,
                        "unit": "stuk",
                        "system": "urn:oid:2.16.840.1.113883.2.4.4.1.900.2",
                        "code": "245"
                      }
                    }
                  ],
                  "value": 1,
                  "unit": "stuk",
                  "system": "http://unitsofmeasure.org",
                  "code": "1"
                }
              }
            ]
          }
        ]
      },
      "request": {
        "method": "POST",
        "url": "MedicationRequest"
      }
    },
    {
      "fullUrl": "urn:uuid:c33f2116-6a95-11ec-0000-020000000000",
      "resource": {
        "resourceType": "MedicationRequest",
        "meta": {
          "profile": [
            "http://nictiz.nl/fhir/StructureDefinition/mp-MedicationAgreement"
          ]
        },
        "extension": [
          {
            "url": "http://nictiz.nl/fhir/StructureDefinition/ext-RenderedDosageInstruction",
            "valueString": "Vanaf T - 100 dagen, tot en met T - 72 dagen, 1 maal per dag 10 ml, oraal"
          },
          {
            "url": "http://nictiz.nl/fhir/StructureDefinition/ext-TimeInterval.Period",
            "valuePeriod": {
              "start": "${DATE, T, D, -100}T00:00:00+02:00",
              "end": "${DATE, T, D, -72}T23:59:59+02:00"
            }
          },
          {
            "url": "http://nictiz.nl/fhir/StructureDefinition/ext-PharmaceuticalTreatment.Identifier",
            "valueIdentifier": {
              "system": "urn:oid:2.16.840.1.113883.2.4.3.11.999.77.1.1",
              "value": "MBH_200_QA2"
            }
          }
        ],
        "identifier": [
          {
            "system": "urn:oid:2.16.840.1.113883.2.4.3.11.999.77.16076005.1",
            "value": "MBH_200_QA2_MA"
          }
        ],
        "status": "unknown",
        "intent": "order",
        "category": [
          {
            "coding": [
              {
                "system": "http://snomed.info/sct",
                "code": "33633005",
                "display": "voorschrijven van geneesmiddel"
              }
            ]
          }
        ],
        "medicationReference": {
          "reference": "urn:uuid:c33f21ca-6a95-11ec-0000-020000000000",
          "type": "Medication",
          "display": "SENNOSIDEN A+B STROOP 2MG/ML"
        },
        "subject": {
          "reference": "urn:uuid:c33f209e-6a95-11ec-0000-020000000000",
          "type": "Patient",
          "display": "Patient, R. van XXX_Sonnenberg"
        },
        "authoredOn": "${DATE, T, D, -100}T08:04:00+02:00",
        "requester": {
          "reference": "urn:uuid:c33f20bc-6a95-11ec-0000-020000000000",
          "type": "PractitionerRole",
          "display": "Healthcare professional (role), Peter van Pulver, Huisartsen, niet nader gespecificeerd"
        },
        "dosageInstruction": [
          {
            "timing": {
              "repeat": {
                "frequency": 1,
                "period": 1,
                "periodUnit": "d"
              }
            },
            "route": {
              "coding": [
                {
                  "system": "urn:oid:2.16.840.1.113883.2.4.4.9",
                  "code": "9",
                  "display": "oraal"
                }
              ]
            },
            "doseAndRate": [
              {
                "doseQuantity": {
                  "extension": [
                    {
                      "url": "http://hl7.org/fhir/StructureDefinition/iso21090-PQ-translation",
                      "valueQuantity": {
                        "value": 10,
                        "unit": "milliliter",
                        "system": "urn:oid:2.16.840.1.113883.2.4.4.1.900.2",
                        "code": "233"
                      }
                    }
                  ],
                  "value": 10,
                  "unit": "milliliter",
                  "system": "http://unitsofmeasure.org",
                  "code": "ml"
                }
              }
            ]
          }
        ]
      },
      "request": {
        "method": "POST",
        "url": "MedicationRequest"
      }
    },
    {
      "fullUrl": "urn:uuid:c33f2134-6a95-11ec-0000-020000000000",
      "resource": {
        "resourceType": "MedicationRequest",
        "meta": {
          "profile": [
            "http://nictiz.nl/fhir/StructureDefinition/mp-MedicationAgreement"
          ]
        },
        "extension": [
          {
            "url": "http://nictiz.nl/fhir/StructureDefinition/ext-RenderedDosageInstruction",
            "valueString": "Vanaf T - 50 dagen, tot en met T - 11 dagen, 2 maal per dag 50 ml, oraal"
          },
          {
            "url": "http://nictiz.nl/fhir/StructureDefinition/ext-TimeInterval.Period",
            "valuePeriod": {
              "start": "${DATE, T, D, -50}T00:00:00+02:00",
              "end": "${DATE, T, D, -11}T23:59:59+02:00"
            }
          },
          {
            "url": "http://nictiz.nl/fhir/StructureDefinition/ext-PharmaceuticalTreatment.Identifier",
            "valueIdentifier": {
              "system": "urn:oid:2.16.840.1.113883.2.4.3.11.999.77.1.1",
              "value": "MBH_200_QA3"
            }
          }
        ],
        "identifier": [
          {
            "system": "urn:oid:2.16.840.1.113883.2.4.3.11.999.77.16076005.1",
            "value": "MBH_200_QA3_MA"
          }
        ],
        "status": "unknown",
        "intent": "order",
        "category": [
          {
            "coding": [
              {
                "system": "http://snomed.info/sct",
                "code": "33633005",
                "display": "voorschrijven van geneesmiddel"
              }
            ]
          }
        ],
        "medicationReference": {
          "reference": "urn:uuid:c33f21e8-6a95-11ec-0000-020000000000",
          "type": "Medication",
          "display": "VLOEIBARE VOEDING MET O.A. VITAMINE K"
        },
        "subject": {
          "reference": "urn:uuid:c33f209e-6a95-11ec-0000-020000000000",
          "type": "Patient",
          "display": "Patient, R. van XXX_Sonnenberg"
        },
        "authoredOn": "${DATE, T, D, -50}T08:10:00+02:00",
        "requester": {
          "reference": "urn:uuid:c33f20bc-6a95-11ec-0000-020000000000",
          "type": "PractitionerRole",
          "display": "Healthcare professional (role), Peter van Pulver, Huisartsen, niet nader gespecificeerd"
        },
        "dosageInstruction": [
          {
            "timing": {
              "repeat": {
                "frequency": 2,
                "period": 1,
                "periodUnit": "d"
              }
            },
            "route": {
              "coding": [
                {
                  "system": "urn:oid:2.16.840.1.113883.2.4.4.9",
                  "code": "9",
                  "display": "oraal"
                }
              ]
            },
            "doseAndRate": [
              {
                "doseQuantity": {
                  "extension": [
                    {
                      "url": "http://hl7.org/fhir/StructureDefinition/iso21090-PQ-translation",
                      "valueQuantity": {
                        "value": 50,
                        "unit": "milliliter",
                        "system": "urn:oid:2.16.840.1.113883.2.4.4.1.900.2",
                        "code": "233"
                      }
                    }
                  ],
                  "value": 50,
                  "unit": "milliliter",
                  "system": "http://unitsofmeasure.org",
                  "code": "ml"
                }
              }
            ]
          }
        ]
      },
      "request": {
        "method": "POST",
        "url": "MedicationRequest"
      }
    },
    {
      "fullUrl": "urn:uuid:c33f2152-6a95-11ec-0000-020000000000",
      "resource": {
        "resourceType": "MedicationRequest",
        "meta": {
          "profile": [
            "http://nictiz.nl/fhir/StructureDefinition/mp-MedicationAgreement"
          ]
        },
        "extension": [
          {
            "url": "http://nictiz.nl/fhir/StructureDefinition/ext-RenderedDosageInstruction",
            "valueString": "Vanaf T - 10 dagen, tot en met T + 19 dagen, 1 maal per dag 1 stuk, oraal"
          },
          {
            "url": "http://nictiz.nl/fhir/StructureDefinition/ext-TimeInterval.Period",
            "valuePeriod": {
              "start": "${DATE, T, D, -10}T00:00:00+02:00",
              "end": "${DATE, T, D, +19}T23:59:59+02:00"
            }
          },
          {
            "url": "http://nictiz.nl/fhir/StructureDefinition/ext-PharmaceuticalTreatment.Identifier",
            "valueIdentifier": {
              "system": "urn:oid:2.16.840.1.113883.2.4.3.11.999.77.1.1",
              "value": "MBH_200_QA4"
            }
          }
        ],
        "identifier": [
          {
            "system": "urn:oid:2.16.840.1.113883.2.4.3.11.999.77.16076005.1",
            "value": "MBH_200_QA4_MA"
          }
        ],
        "status": "unknown",
        "intent": "order",
        "category": [
          {
            "coding": [
              {
                "system": "http://snomed.info/sct",
                "code": "33633005",
                "display": "voorschrijven van geneesmiddel"
              }
            ]
          }
        ],
        "medicationReference": {
          "reference": "urn:uuid:c33f2206-6a95-11ec-0000-020000000000",
          "type": "Medication",
          "display": "ACETYLSALICYLZUUR TABLET 100MG"
        },
        "subject": {
          "reference": "urn:uuid:c33f209e-6a95-11ec-0000-020000000000",
          "type": "Patient",
          "display": "Patient, R. van XXX_Sonnenberg"
        },
        "authoredOn": "${DATE, T, D, -10}T08:12:00+02:00",
        "requester": {
          "reference": "urn:uuid:c33f20bc-6a95-11ec-0000-020000000000",
          "type": "PractitionerRole",
          "display": "Healthcare professional (role), Peter van Pulver, Huisartsen, niet nader gespecificeerd"
        },
        "dosageInstruction": [
          {
            "timing": {
              "repeat": {
                "frequency": 1,
                "period": 1,
                "periodUnit": "d"
              }
            },
            "route": {
              "coding": [
                {
                  "system": "urn:oid:2.16.840.1.113883.2.4.4.9",
                  "code": "9",
                  "display": "oraal"
                }
              ]
            },
            "doseAndRate": [
              {
                "doseQuantity": {
                  "extension": [
                    {
                      "url": "http://hl7.org/fhir/StructureDefinition/iso21090-PQ-translation",
                      "valueQuantity": {
                        "value": 1,
                        "unit": "stuk",
                        "system": "urn:oid:2.16.840.1.113883.2.4.4.1.900.2",
                        "code": "245"
                      }
                    }
                  ],
                  "value": 1,
                  "unit": "stuk",
                  "system": "http://unitsofmeasure.org",
                  "code": "1"
                }
              }
            ]
          }
        ]
      },
      "request": {
        "method": "POST",
        "url": "MedicationRequest"
      }
    },
    {
      "fullUrl": "urn:uuid:c33f2170-6a95-11ec-0000-020000000000",
      "resource": {
        "resourceType": "MedicationRequest",
        "meta": {
          "profile": [
            "http://nictiz.nl/fhir/StructureDefinition/mp-MedicationAgreement"
          ]
        },
        "extension": [
          {
            "url": "http://nictiz.nl/fhir/StructureDefinition/ext-RenderedDosageInstruction",
            "valueString": "Vanaf T - 50 dagen, tot en met T - 44 dagen, 4 maal per dag 2 stuks, oraal"
          },
          {
            "url": "http://nictiz.nl/fhir/StructureDefinition/ext-TimeInterval.Period",
            "valuePeriod": {
              "start": "${DATE, T, D, -50}T00:00:00+02:00",
              "end": "${DATE, T, D, -44}T23:59:59+02:00"
            }
          },
          {
            "url": "http://nictiz.nl/fhir/StructureDefinition/ext-PharmaceuticalTreatment.Identifier",
            "valueIdentifier": {
              "system": "urn:oid:2.16.840.1.113883.2.4.3.11.999.77.1.1",
              "value": "MBH_200_QA5"
            }
          }
        ],
        "identifier": [
          {
            "system": "urn:oid:2.16.840.1.113883.2.4.3.11.999.77.16076005.1",
            "value": "MBH_200_QA5_MA"
          }
        ],
        "status": "unknown",
        "intent": "order",
        "category": [
          {
            "coding": [
              {
                "system": "http://snomed.info/sct",
                "code": "33633005",
                "display": "voorschrijven van geneesmiddel"
              }
            ]
          }
        ],
        "medicationReference": {
          "reference": "urn:uuid:c33f2224-6a95-11ec-0000-020000000000",
          "type": "Medication",
          "display": "PARACETAMOL 500MG TABLET"
        },
        "subject": {
          "reference": "urn:uuid:c33f209e-6a95-11ec-0000-020000000000",
          "type": "Patient",
          "display": "Patient, R. van XXX_Sonnenberg"
        },
        "authoredOn": "${DATE, T, D, -50}T08:15:00+02:00",
        "requester": {
          "reference": "urn:uuid:c33f20bc-6a95-11ec-0000-020000000000",
          "type": "PractitionerRole",
          "display": "Healthcare professional (role), Peter van Pulver, Huisartsen, niet nader gespecificeerd"
        },
        "dosageInstruction": [
          {
            "timing": {
              "repeat": {
                "frequency": 4,
                "period": 1,
                "periodUnit": "d"
              }
            },
            "route": {
              "coding": [
                {
                  "system": "urn:oid:2.16.840.1.113883.2.4.4.9",
                  "code": "9",
                  "display": "oraal"
                }
              ]
            },
            "doseAndRate": [
              {
                "doseQuantity": {
                  "extension": [
                    {
                      "url": "http://hl7.org/fhir/StructureDefinition/iso21090-PQ-translation",
                      "valueQuantity": {
                        "value": 2,
                        "unit": "stuk",
                        "system": "urn:oid:2.16.840.1.113883.2.4.4.1.900.2",
                        "code": "245"
                      }
                    }
                  ],
                  "value": 2,
                  "unit": "stuk",
                  "system": "http://unitsofmeasure.org",
                  "code": "1"
                }
              }
            ]
          }
        ]
      },
      "request": {
        "method": "POST",
        "url": "MedicationRequest"
      }
    },
    {
      "fullUrl": "urn:uuid:c33f218e-6a95-11ec-0000-020000000000",
      "resource": {
        "resourceType": "MedicationRequest",
        "meta": {
          "profile": [
            "http://nictiz.nl/fhir/StructureDefinition/mp-MedicationAgreement"
          ]
        },
        "extension": [
          {
            "url": "http://nictiz.nl/fhir/StructureDefinition/ext-RenderedDosageInstruction",
            "valueString": "Vanaf T - 5 dagen, tot en met T + 1 dag, 3 maal per dag 1 stuk, oraal"
          },
          {
            "url": "http://nictiz.nl/fhir/StructureDefinition/ext-TimeInterval.Period",
            "valuePeriod": {
              "start": "${DATE, T, D, -5}T00:00:00+02:00",
              "end": "${DATE, T, D, +1}T23:59:59+02:00"
            }
          },
          {
            "url": "http://nictiz.nl/fhir/StructureDefinition/ext-PharmaceuticalTreatment.Identifier",
            "valueIdentifier": {
              "system": "urn:oid:2.16.840.1.113883.2.4.3.11.999.77.1.1",
              "value": "MBH_200_QA6"
            }
          }
        ],
        "identifier": [
          {
            "system": "urn:oid:2.16.840.1.113883.2.4.3.11.999.77.16076005.1",
            "value": "MBH_200_QA6_MA"
          }
        ],
        "status": "unknown",
        "intent": "order",
        "category": [
          {
            "coding": [
              {
                "system": "http://snomed.info/sct",
                "code": "33633005",
                "display": "voorschrijven van geneesmiddel"
              }
            ]
          }
        ],
        "medicationReference": {
          "reference": "urn:uuid:c33f2242-6a95-11ec-0000-020000000000",
          "type": "Medication",
          "display": "OXAZEPAM TABLET 10MG"
        },
        "subject": {
          "reference": "urn:uuid:c33f209e-6a95-11ec-0000-020000000000",
          "type": "Patient",
          "display": "Patient, R. van XXX_Sonnenberg"
        },
        "authoredOn": "${DATE, T, D, -5}T08:18:00+02:00",
        "requester": {
          "reference": "urn:uuid:c33f20bc-6a95-11ec-0000-020000000000",
          "type": "PractitionerRole",
          "display": "Healthcare professional (role), Peter van Pulver, Huisartsen, niet nader gespecificeerd"
        },
        "dosageInstruction": [
          {
            "timing": {
              "repeat": {
                "frequency": 3,
                "period": 1,
                "periodUnit": "d"
              }
            },
            "route": {
              "coding": [
                {
                  "system": "urn:oid:2.16.840.1.113883.2.4.4.9",
                  "code": "9",
                  "display": "oraal"
                }
              ]
            },
            "doseAndRate": [
              {
                "doseQuantity": {
                  "extension": [
                    {
                      "url": "http://hl7.org/fhir/StructureDefinition/iso21090-PQ-translation",
                      "valueQuantity": {
                        "value": 1,
                        "unit": "stuk",
                        "system": "urn:oid:2.16.840.1.113883.2.4.4.1.900.2",
                        "code": "245"
                      }
                    }
                  ],
                  "value": 1,
                  "unit": "stuk",
                  "system": "http://unitsofmeasure.org",
                  "code": "1"
                }
              }
            ]
          }
        ]
      },
      "request": {
        "method": "POST",
        "url": "MedicationRequest"
      }
    },
    {
      "fullUrl": "urn:uuid:c33f209e-6a95-11ec-0000-020000000000",
      "resource": {
        "resourceType": "Patient",
        "meta": {
          "profile": [
            "http://nictiz.nl/fhir/StructureDefinition/nl-core-Patient"
          ]
        },
        "identifier": [
          {
            "system": "http://fhir.nl/fhir/NamingSystem/bsn",
            "value": "999901084"
          }
        ],
        "name": [
          {
            "extension": [
              {
                "url": "http://hl7.org/fhir/StructureDefinition/humanname-assembly-order",
                "valueCode": "NL1"
              }
            ],
            "use": "official",
            "text": "R. van XXX_Sonnenberg",
            "family": "van XXX_Sonnenberg",
            "_family": {
              "extension": [
                {
                  "url": "http://hl7.org/fhir/StructureDefinition/humanname-own-prefix",
                  "valueString": "van"
                },
                {
                  "url": "http://hl7.org/fhir/StructureDefinition/humanname-own-name",
                  "valueString": "XXX_Sonnenberg"
                }
              ]
            },
            "given": [
              "R."
            ],
            "_given": [
              {
                "extension": [
                  {
                    "url": "http://hl7.org/fhir/StructureDefinition/iso21090-EN-qualifier",
                    "valueCode": "IN"
                  }
                ]
              }
            ]
          }
        ],
        "gender": "male",
        "_gender": {
          "extension": [
            {
              "url": "http://nictiz.nl/fhir/StructureDefinition/ext-CodeSpecification",
              "valueCodeableConcept": {
                "coding": [
                  {
                    "system": "http://terminology.hl7.org/CodeSystem/v3-AdministrativeGender",
                    "code": "M",
                    "display": "Man"
                  }
                ]
              }
            }
          ]
        },
        "birthDate": "1985-11-20"
      },
      "request": {
        "method": "POST",
        "url": "Patient"
      }
    },
    {
      "fullUrl": "urn:uuid:c33f20bc-6a95-11ec-0000-020000000000",
      "resource": {
        "resourceType": "PractitionerRole",
        "meta": {
          "profile": [
            "http://nictiz.nl/fhir/StructureDefinition/nl-core-HealthProfessional-PractitionerRole"
          ]
        },
        "practitioner": {
          "reference": "urn:uuid:c33f20da-6a95-11ec-0000-020000000000",
          "type": "Practitioner",
          "display": "Healthcare professional (person), Peter van Pulver"
        },
        "organization": {
          "reference": "urn:uuid:c33f2260-6a95-11ec-0000-020000000000",
          "type": "Organization",
          "display": "Healthcare provider (organization), Huisartsenpraktijk Pulver & Partners"
        },
        "specialty": [
          {
            "coding": [
              {
                "system": "urn:oid:2.16.840.1.113883.2.4.6.7",
                "version": "2020-10-23T00:00:00",
                "code": "0100",
                "display": "Huisartsen, niet nader gespecificeerd"
              }
            ]
          }
        ]
      },
      "request": {
        "method": "POST",
        "url": "PractitionerRole"
      }
    },
    {
      "fullUrl": "urn:uuid:c33f20da-6a95-11ec-0000-020000000000",
      "resource": {
        "resourceType": "Practitioner",
        "meta": {
          "profile": [
            "http://nictiz.nl/fhir/StructureDefinition/nl-core-HealthProfessional-Practitioner"
          ]
        },
        "identifier": [
          {
            "system": "http://fhir.nl/fhir/NamingSystem/uzi-nr-pers",
            "value": "000001111"
          }
        ],
        "name": [
          {
            "use": "official",
            "text": "Peter van Pulver",
            "family": "van Pulver",
            "_family": {
              "extension": [
                {
                  "url": "http://hl7.org/fhir/StructureDefinition/humanname-own-prefix",
                  "valueString": "van"
                },
                {
                  "url": "http://hl7.org/fhir/StructureDefinition/humanname-own-name",
                  "valueString": "Pulver"
                }
              ]
            },
            "given": [
              "Peter"
            ],
            "_given": [
              {
                "extension": [
                  {
                    "url": "http://hl7.org/fhir/StructureDefinition/iso21090-EN-qualifier",
                    "valueCode": "BR"
                  }
                ]
              }
            ]
          }
        ]
      },
      "request": {
        "method": "POST",
        "url": "Practitioner"
      }
    },
    {
      "fullUrl": "urn:uuid:c33f2260-6a95-11ec-0000-020000000000",
      "resource": {
        "resourceType": "Organization",
        "meta": {
          "profile": [
            "http://nictiz.nl/fhir/StructureDefinition/nl-core-HealthcareProvider-Organization"
          ]
        },
        "identifier": [
          {
            "system": "http://fhir.nl/fhir/NamingSystem/ura",
            "value": "00001111"
          }
        ],
        "name": "Huisartsenpraktijk Pulver & Partners",
        "address": [
          {
            "extension": [
              {
                "url": "http://nictiz.nl/fhir/StructureDefinition/ext-AddressInformation.AddressType",
                "valueCodeableConcept": {
                  "coding": [
                    {
                      "system": "http://terminology.hl7.org/CodeSystem/v3-AddressUse",
                      "code": "WP",
                      "display": "Werkadres"
                    }
                  ]
                }
              }
            ],
            "use": "work",
            "line": [
              "Dorpsstraat 1"
            ],
            "_line": [
              {
                "extension": [
                  {
                    "url": "http://hl7.org/fhir/StructureDefinition/iso21090-ADXP-streetName",
                    "valueString": "Dorpsstraat"
                  },
                  {
                    "url": "http://hl7.org/fhir/StructureDefinition/iso21090-ADXP-houseNumber",
                    "valueString": "1"
                  }
                ]
              }
            ],
            "city": "Ons Dorp",
            "postalCode": "1234AA"
          }
        ]
      },
      "request": {
        "method": "POST",
        "url": "Organization"
      }
    },
    {
      "fullUrl": "urn:uuid:c33f21ac-6a95-11ec-0000-020000000000",
      "resource": {
        "resourceType": "Medication",
        "meta": {
          "profile": [
            "http://nictiz.nl/fhir/StructureDefinition/nl-core-PharmaceuticalProduct"
          ]
        },
        "code": {
          "coding": [
            {
              "system": "urn:oid:2.16.840.1.113883.2.4.4.10",
              "code": "17469",
              "display": "IBUPROFEN TABLET 600MG",
              "userSelected": true
            },
            {
              "system": "urn:oid:2.16.840.1.113883.2.4.4.1",
              "code": "42080",
              "display": "IBUPROFEN TABLET 600MG"
            }
          ],
          "text": "IBUPROFEN TABLET 600MG"
        }
      },
      "request": {
        "method": "POST",
        "url": "Medication"
      }
    },
    {
      "fullUrl": "urn:uuid:c33f21ca-6a95-11ec-0000-020000000000",
      "resource": {
        "resourceType": "Medication",
        "meta": {
          "profile": [
            "http://nictiz.nl/fhir/StructureDefinition/nl-core-PharmaceuticalProduct"
          ]
        },
        "code": {
          "coding": [
            {
              "system": "urn:oid:2.16.840.1.113883.2.4.4.10",
              "code": "3379",
              "display": "SENNOSIDEN A+B STROOP 2MG/ML",
              "userSelected": true
            },
            {
              "system": "urn:oid:2.16.840.1.113883.2.4.4.1",
              "code": "10960",
              "display": "SENNOSIDEN A+B STROOP 2MG/ML"
            }
          ],
          "text": "SENNOSIDEN A+B STROOP 2MG/ML"
        }
      },
      "request": {
        "method": "POST",
        "url": "Medication"
      }
    },
    {
      "fullUrl": "urn:uuid:c33f21e8-6a95-11ec-0000-020000000000",
      "resource": {
        "resourceType": "Medication",
        "meta": {
          "profile": [
            "http://nictiz.nl/fhir/StructureDefinition/nl-core-PharmaceuticalProduct"
          ]
        },
        "code": {
          "coding": [
            {
              "system": "urn:oid:2.16.840.1.113883.2.4.4.10",
              "code": "88749",
              "display": "VLOEIBARE VOEDING MET O.A. VITAMINE K",
              "userSelected": true
            },
            {
              "system": "urn:oid:2.16.840.1.113883.2.4.4.1",
              "code": "130575",
              "display": "VLOEIBARE VOEDING MET O.A. VITAMINE K"
            }
          ],
          "text": "VLOEIBARE VOEDING MET O.A. VITAMINE K"
        }
      },
      "request": {
        "method": "POST",
        "url": "Medication"
      }
    },
    {
      "fullUrl": "urn:uuid:c33f2206-6a95-11ec-0000-020000000000",
      "resource": {
        "resourceType": "Medication",
        "meta": {
          "profile": [
            "http://nictiz.nl/fhir/StructureDefinition/nl-core-PharmaceuticalProduct"
          ]
        },
        "code": {
          "coding": [
            {
              "system": "urn:oid:2.16.840.1.113883.2.4.4.10",
              "code": "3956",
              "display": "ACETYLSALICYLZUUR TABLET 100MG",
              "userSelected": true
            },
            {
              "system": "urn:oid:2.16.840.1.113883.2.4.4.1",
              "code": "12548",
              "display": "ACETYLSALICYLZUUR TABLET 100MG"
            }
          ],
          "text": "ACETYLSALICYLZUUR TABLET 100MG"
        }
      },
      "request": {
        "method": "POST",
        "url": "Medication"
      }
    },
    {
      "fullUrl": "urn:uuid:c33f2224-6a95-11ec-0000-020000000000",
      "resource": {
        "resourceType": "Medication",
        "meta": {
          "profile": [
            "http://nictiz.nl/fhir/StructureDefinition/nl-core-PharmaceuticalProduct"
          ]
        },
        "code": {
          "coding": [
            {
              "system": "urn:oid:2.16.840.1.113883.2.4.4.10",
              "code": "67903",
              "display": "PARACETAMOL 500MG TABLET",
              "userSelected": true
            },
            {
              "system": "urn:oid:2.16.840.1.113883.2.4.4.1",
              "code": "2194",
              "display": "PARACETAMOL 500MG TABLET"
            }
          ],
          "text": "PARACETAMOL 500MG TABLET"
        }
      },
      "request": {
        "method": "POST",
        "url": "Medication"
      }
    },
    {
      "fullUrl": "urn:uuid:c33f2242-6a95-11ec-0000-020000000000",
      "resource": {
        "resourceType": "Medication",
        "meta": {
          "profile": [
            "http://nictiz.nl/fhir/StructureDefinition/nl-core-PharmaceuticalProduct"
          ]
        },
        "code": {
          "coding": [
            {
              "system": "urn:oid:2.16.840.1.113883.2.4.4.10",
              "code": "353",
              "display": "OXAZEPAM TABLET 10MG",
              "userSelected": true
            },
            {
              "system": "urn:oid:2.16.840.1.113883.2.4.4.1",
              "code": "1023",
              "display": "OXAZEPAM TABLET 10MG"
            }
          ],
          "text": "OXAZEPAM TABLET 10MG"
        }
      },
      "request": {
        "method": "POST",
        "url": "Medication"
      }
    }
  ]
}