{
  "resourceType": "Bundle",
  "id": "mg-mp-mg-tst-MGB-Scenarioset6-v20",
  "type": "transaction",
  "entry": [
    {
      "fullUrl": "urn:uuid:c33f050a-6a95-11ec-0000-020000000000",
      "resource": {
        "resourceType": "MedicationStatement",
        "meta": {
          "profile": [
            "http://nictiz.nl/fhir/StructureDefinition/mp-MedicationUse2"
          ]
        },
        "extension": [
          {
            "url": "http://nictiz.nl/fhir/StructureDefinition/ext-RenderedDosageInstruction",
            "valueString": "Vanaf T, tot en met T + 16 dagen, 1 à 2 maal per dag 1 stuk, Oraal"
          },
          {
            "url": "http://nictiz.nl/fhir/StructureDefinition/ext-MedicationUse2.Prescriber",
            "valueReference": {
              "reference": "urn:uuid:c33f04ce-6a95-11ec-0000-020000000000",
              "type": "PractitionerRole",
              "display": "Healthcare professional (role), Peter van Pulver, Huisartsen, niet nader gespecificeerd"
            }
          },
          {
            "url": "http://nictiz.nl/fhir/StructureDefinition/ext-AsAgreedIndicator",
            "valueBoolean": true
          },
          {
            "url": "http://nictiz.nl/fhir/StructureDefinition/ext-PharmaceuticalTreatment.Identifier",
            "valueIdentifier": {
              "system": "urn:oid:2.16.840.1.113883.2.4.3.11.999.77.1.1",
              "value": "MBH_200_variabelefrequentie"
            }
          },
          {
            "url": "http://nictiz.nl/fhir/StructureDefinition/ext-MedicationUse2.Author",
            "valueReference": {
              "reference": "urn:uuid:c33f04ce-6a95-11ec-0000-020000000000",
              "type": "PractitionerRole",
              "display": "Healthcare professional (role), Peter van Pulver, Huisartsen, niet nader gespecificeerd"
            }
          }
        ],
        "identifier": [
          {
            "system": "urn:oid:2.16.840.1.113883.2.4.3.11.999.77.6.1",
            "value": "MBH_200_variabelefrequentie_MGB"
          }
        ],
        "status": "active",
        "category": {
          "coding": [
            {
              "system": "http://snomed.info/sct",
              "code": "422979000",
              "display": "bevinding betreffende gedrag met betrekking tot medicatieregime"
            }
          ]
        },
        "medicationReference": {
          "reference": "urn:uuid:c33f06ea-6a95-11ec-0000-020000000000",
          "type": "Medication",
          "display": "MIZOLASTINE TABLET MGA 10MG"
        },
        "subject": {
          "reference": "urn:uuid:c33f04b0-6a95-11ec-0000-020000000000",
          "type": "Patient",
          "display": "Patient, M. XXX_Rambaldo"
        },
        "effectivePeriod": {
          "start": "${DATE, T, D, +0}T00:00:00+02:00",
          "end": "${DATE, T, D, +16}T23:59:59+02:00"
        },
        "dateAsserted": "${DATE, T, D, +16}T16:00:00+02:00",
        "informationSource": {
          "reference": "urn:uuid:c33f04b0-6a95-11ec-0000-020000000000",
          "type": "Patient",
          "display": "Patient, M. XXX_Rambaldo"
        },
        "derivedFrom": [
          {
            "extension": [
              {
                "url": "http://nictiz.nl/fhir/StructureDefinition/ext-ResourceCategory",
                "valueCodeableConcept": {
                  "coding": [
                    {
                      "system": "http://snomed.info/sct",
                      "code": "33633005",
                      "display": "voorschrijven"
                    }
                  ]
                }
              }
            ],
            "identifier": {
              "system": "urn:oid:2.16.840.1.113883.2.4.3.11.999.77.16076005.1",
              "value": "MBH_200_variabelefrequentie_MA"
            },
            "display": "relatie naar medicatieafspraak"
          },
          {
            "extension": [
              {
                "url": "http://nictiz.nl/fhir/StructureDefinition/ext-ResourceCategory",
                "valueCodeableConcept": {
                  "coding": [
                    {
                      "system": "http://snomed.info/sct",
                      "code": "422037009",
                      "display": "toedieningsafspraak"
                    }
                  ]
                }
              }
            ],
            "identifier": {
              "system": "urn:oid:2.16.840.1.113883.2.4.3.11.999.77.422037009.1",
              "value": "MBH_200_variabelefrequentie_TA"
            },
            "display": "relatie naar toedieningsafspraak"
          }
        ],
        "dosage": [
          {
            "timing": {
              "repeat": {
                "frequency": 1,
                "frequencyMax": 2,
                "period": 1,
                "periodUnit": "d"
              }
            },
            "route": {
              "coding": [
                {
                  "system": "urn:oid:2.16.840.1.113883.2.4.4.9",
                  "code": "9",
                  "display": "Oraal"
                }
              ]
            },
            "doseAndRate": [
              {
                "doseQuantity": {
                  "extension": [
                    {
                      "url": "http://hl7.org/fhir/StructureDefinition/iso21090-PQ-translation",
                      "valueQuantity": {
                        "value": 1,
                        "unit": "stuk",
                        "system": "urn:oid:2.16.840.1.113883.2.4.4.1.900.2",
                        "code": "245"
                      }
                    }
                  ],
                  "value": 1,
                  "unit": "stuk",
                  "system": "http://unitsofmeasure.org",
                  "code": "1"
                }
              }
            ]
          }
        ]
      },
      "request": {
        "method": "POST",
        "url": "MedicationStatement"
      }
    },
    {
      "fullUrl": "urn:uuid:c33f0528-6a95-11ec-0000-020000000000",
      "resource": {
        "resourceType": "MedicationStatement",
        "meta": {
          "profile": [
            "http://nictiz.nl/fhir/StructureDefinition/mp-MedicationUse2"
          ]
        },
        "extension": [
          {
            "url": "http://nictiz.nl/fhir/StructureDefinition/ext-RenderedDosageInstruction",
            "valueString": "Vanaf T, tot en met T + 16 dagen, iedere 8 uur 1 stuk - let op, tijden exact aanhouden, Oraal"
          },
          {
            "url": "http://nictiz.nl/fhir/StructureDefinition/ext-MedicationUse2.Prescriber",
            "valueReference": {
              "reference": "urn:uuid:c33f04ce-6a95-11ec-0000-020000000000",
              "type": "PractitionerRole",
              "display": "Healthcare professional (role), Peter van Pulver, Huisartsen, niet nader gespecificeerd"
            }
          },
          {
            "url": "http://nictiz.nl/fhir/StructureDefinition/ext-AsAgreedIndicator",
            "valueBoolean": true
          },
          {
            "url": "http://nictiz.nl/fhir/StructureDefinition/ext-PharmaceuticalTreatment.Identifier",
            "valueIdentifier": {
              "system": "urn:oid:2.16.840.1.113883.2.4.3.11.999.77.1.1",
              "value": "MBH_200_interval"
            }
          },
          {
            "url": "http://nictiz.nl/fhir/StructureDefinition/ext-MedicationUse2.Author",
            "valueReference": {
              "reference": "urn:uuid:c33f04ce-6a95-11ec-0000-020000000000",
              "type": "PractitionerRole",
              "display": "Healthcare professional (role), Peter van Pulver, Huisartsen, niet nader gespecificeerd"
            }
          }
        ],
        "identifier": [
          {
            "system": "urn:oid:2.16.840.1.113883.2.4.3.11.999.77.6.1",
            "value": "MBH_200_interval_MGB"
          }
        ],
        "status": "active",
        "category": {
          "coding": [
            {
              "system": "http://snomed.info/sct",
              "code": "422979000",
              "display": "bevinding betreffende gedrag met betrekking tot medicatieregime"
            }
          ]
        },
        "medicationReference": {
          "reference": "urn:uuid:c33f0708-6a95-11ec-0000-020000000000",
          "type": "Medication",
          "display": "AMOXICILLINE DISPERTABLET 500MG"
        },
        "subject": {
          "reference": "urn:uuid:c33f04b0-6a95-11ec-0000-020000000000",
          "type": "Patient",
          "display": "Patient, M. XXX_Rambaldo"
        },
        "effectivePeriod": {
          "start": "${DATE, T, D, +0}T00:00:00+02:00",
          "end": "${DATE, T, D, +16}T23:59:59+02:00"
        },
        "dateAsserted": "${DATE, T, D, +16}T23:59:59+02:00",
        "informationSource": {
          "reference": "urn:uuid:c33f04b0-6a95-11ec-0000-020000000000",
          "type": "Patient",
          "display": "Patient, M. XXX_Rambaldo"
        },
        "derivedFrom": [
          {
            "extension": [
              {
                "url": "http://nictiz.nl/fhir/StructureDefinition/ext-ResourceCategory",
                "valueCodeableConcept": {
                  "coding": [
                    {
                      "system": "http://snomed.info/sct",
                      "code": "33633005",
                      "display": "voorschrijven"
                    }
                  ]
                }
              }
            ],
            "identifier": {
              "system": "urn:oid:2.16.840.1.113883.2.4.3.11.999.77.16076005.1",
              "value": "MBH_200_interval_MA"
            },
            "display": "relatie naar medicatieafspraak"
          }
        ],
        "dosage": [
          {
            "timing": {
              "repeat": {
                "extension": [
                  {
                    "url": "http://hl7.org/fhir/StructureDefinition/timing-exact",
                    "valueBoolean": true
                  }
                ],
                "frequency": 1,
                "period": 8,
                "periodUnit": "h"
              }
            },
            "route": {
              "coding": [
                {
                  "system": "urn:oid:2.16.840.1.113883.2.4.4.9",
                  "code": "9",
                  "display": "Oraal"
                }
              ]
            },
            "doseAndRate": [
              {
                "doseQuantity": {
                  "extension": [
                    {
                      "url": "http://hl7.org/fhir/StructureDefinition/iso21090-PQ-translation",
                      "valueQuantity": {
                        "value": 1,
                        "unit": "stuk",
                        "system": "urn:oid:2.16.840.1.113883.2.4.4.1.900.2",
                        "code": "245"
                      }
                    }
                  ],
                  "value": 1,
                  "unit": "stuk",
                  "system": "http://unitsofmeasure.org",
                  "code": "1"
                }
              }
            ]
          }
        ]
      },
      "request": {
        "method": "POST",
        "url": "MedicationStatement"
      }
    },
    {
      "fullUrl": "urn:uuid:c33f0546-6a95-11ec-0000-020000000000",
      "resource": {
        "resourceType": "MedicationStatement",
        "meta": {
          "profile": [
            "http://nictiz.nl/fhir/StructureDefinition/mp-MedicationUse2"
          ]
        },
        "extension": [
          {
            "url": "http://nictiz.nl/fhir/StructureDefinition/ext-RenderedDosageInstruction",
            "valueString": "Vanaf T, tot en met T + 14 dagen, 3 maal per dag 1 à 2 stuks, oraal"
          },
          {
            "url": "http://nictiz.nl/fhir/StructureDefinition/ext-MedicationUse2.Prescriber",
            "valueReference": {
              "reference": "urn:uuid:c33f04ce-6a95-11ec-0000-020000000000",
              "type": "PractitionerRole",
              "display": "Healthcare professional (role), Peter van Pulver, Huisartsen, niet nader gespecificeerd"
            }
          },
          {
            "url": "http://nictiz.nl/fhir/StructureDefinition/ext-AsAgreedIndicator",
            "valueBoolean": true
          },
          {
            "url": "http://nictiz.nl/fhir/StructureDefinition/ext-PharmaceuticalTreatment.Identifier",
            "valueIdentifier": {
              "system": "urn:oid:2.16.840.1.113883.2.4.3.11.999.77.1.1",
              "value": "MBH_200_variabelehoeveelheid"
            }
          },
          {
            "url": "http://nictiz.nl/fhir/StructureDefinition/ext-MedicationUse2.Author",
            "valueReference": {
              "reference": "urn:uuid:c33f04ce-6a95-11ec-0000-020000000000",
              "type": "PractitionerRole",
              "display": "Healthcare professional (role), Peter van Pulver, Huisartsen, niet nader gespecificeerd"
            }
          }
        ],
        "identifier": [
          {
            "system": "urn:oid:2.16.840.1.113883.2.4.3.11.999.77.6.1",
            "value": "MBH_200_variabelehoeveelheid_MGB"
          }
        ],
        "status": "active",
        "category": {
          "coding": [
            {
              "system": "http://snomed.info/sct",
              "code": "422979000",
              "display": "bevinding betreffende gedrag met betrekking tot medicatieregime"
            }
          ]
        },
        "medicationReference": {
          "reference": "urn:uuid:c33f0726-6a95-11ec-0000-020000000000",
          "type": "Medication",
          "display": "PARACETAMOL 500MG TABLET"
        },
        "subject": {
          "reference": "urn:uuid:c33f04b0-6a95-11ec-0000-020000000000",
          "type": "Patient",
          "display": "Patient, M. XXX_Rambaldo"
        },
        "effectivePeriod": {
          "start": "${DATE, T, D, +0}T00:00:00+02:00",
          "end": "${DATE, T, D, +14}T23:59:59+02:00"
        },
        "dateAsserted": "${DATE, T, D, +14}T23:59:59+02:00",
        "informationSource": {
          "reference": "urn:uuid:c33f04b0-6a95-11ec-0000-020000000000",
          "type": "Patient",
          "display": "Patient, M. XXX_Rambaldo"
        },
        "derivedFrom": [
          {
            "extension": [
              {
                "url": "http://nictiz.nl/fhir/StructureDefinition/ext-ResourceCategory",
                "valueCodeableConcept": {
                  "coding": [
                    {
                      "system": "http://snomed.info/sct",
                      "code": "33633005",
                      "display": "voorschrijven"
                    }
                  ]
                }
              }
            ],
            "identifier": {
              "system": "urn:oid:2.16.840.1.113883.2.4.3.11.999.77.16076005.1",
              "value": "MBH_200_variabelehoeveelheid_MA"
            },
            "display": "relatie naar medicatieafspraak"
          }
        ],
        "dosage": [
          {
            "timing": {
              "repeat": {
                "frequency": 3,
                "period": 1,
                "periodUnit": "d"
              }
            },
            "route": {
              "coding": [
                {
                  "system": "urn:oid:2.16.840.1.113883.2.4.4.9",
                  "code": "9",
                  "display": "oraal"
                }
              ]
            },
            "doseAndRate": [
              {
                "doseRange": {
                  "low": {
                    "extension": [
                      {
                        "url": "http://hl7.org/fhir/StructureDefinition/iso21090-PQ-translation",
                        "valueQuantity": {
                          "value": 1,
                          "unit": "stuk",
                          "system": "urn:oid:2.16.840.1.113883.2.4.4.1.900.2",
                          "code": "245"
                        }
                      }
                    ],
                    "value": 1,
                    "unit": "stuk",
                    "system": "http://unitsofmeasure.org",
                    "code": "1"
                  },
                  "high": {
                    "extension": [
                      {
                        "url": "http://hl7.org/fhir/StructureDefinition/iso21090-PQ-translation",
                        "valueQuantity": {
                          "value": 2,
                          "unit": "stuk",
                          "system": "urn:oid:2.16.840.1.113883.2.4.4.1.900.2",
                          "code": "245"
                        }
                      }
                    ],
                    "value": 2,
                    "unit": "stuk",
                    "system": "http://unitsofmeasure.org",
                    "code": "1"
                  }
                }
              }
            ]
          }
        ]
      },
      "request": {
        "method": "POST",
        "url": "MedicationStatement"
      }
    },
    {
      "fullUrl": "urn:uuid:c33f0564-6a95-11ec-0000-020000000000",
      "resource": {
        "resourceType": "MedicationStatement",
        "meta": {
          "profile": [
            "http://nictiz.nl/fhir/StructureDefinition/mp-MedicationUse2"
          ]
        },
        "extension": [
          {
            "url": "http://nictiz.nl/fhir/StructureDefinition/ext-RenderedDosageInstruction",
            "valueString": "Vanaf T, tot en met T + 21 dagen, 3 maal per dag, aanbrengen, cutaan"
          },
          {
            "url": "http://nictiz.nl/fhir/StructureDefinition/ext-MedicationUse2.Prescriber",
            "valueReference": {
              "reference": "urn:uuid:c33f04ce-6a95-11ec-0000-020000000000",
              "type": "PractitionerRole",
              "display": "Healthcare professional (role), Peter van Pulver, Huisartsen, niet nader gespecificeerd"
            }
          },
          {
            "url": "http://nictiz.nl/fhir/StructureDefinition/ext-AsAgreedIndicator",
            "valueBoolean": true
          },
          {
            "url": "http://nictiz.nl/fhir/StructureDefinition/ext-PharmaceuticalTreatment.Identifier",
            "valueIdentifier": {
              "system": "urn:oid:2.16.840.1.113883.2.4.3.11.999.77.1.1",
              "value": "MBH_200_zonderkeerdosis"
            }
          },
          {
            "url": "http://nictiz.nl/fhir/StructureDefinition/ext-MedicationUse2.Author",
            "valueReference": {
              "reference": "urn:uuid:c33f04ce-6a95-11ec-0000-020000000000",
              "type": "PractitionerRole",
              "display": "Healthcare professional (role), Peter van Pulver, Huisartsen, niet nader gespecificeerd"
            }
          }
        ],
        "identifier": [
          {
            "system": "urn:oid:2.16.840.1.113883.2.4.3.11.999.77.6.1",
            "value": "MBH_200_zonderkeerdosis_MGB"
          }
        ],
        "status": "active",
        "category": {
          "coding": [
            {
              "system": "http://snomed.info/sct",
              "code": "422979000",
              "display": "bevinding betreffende gedrag met betrekking tot medicatieregime"
            }
          ]
        },
        "medicationReference": {
          "reference": "urn:uuid:c33f0744-6a95-11ec-0000-020000000000",
          "type": "Medication",
          "display": "Cetomacrogolcreme met vaseline 10%"
        },
        "subject": {
          "reference": "urn:uuid:c33f04b0-6a95-11ec-0000-020000000000",
          "type": "Patient",
          "display": "Patient, M. XXX_Rambaldo"
        },
        "effectivePeriod": {
          "start": "${DATE, T, D, +0}T00:00:00+02:00",
          "end": "${DATE, T, D, +21}T23:59:59+02:00"
        },
        "dateAsserted": "${DATE, T, D, +21}T23:59:59+02:00",
        "informationSource": {
          "reference": "urn:uuid:c33f04b0-6a95-11ec-0000-020000000000",
          "type": "Patient",
          "display": "Patient, M. XXX_Rambaldo"
        },
        "derivedFrom": [
          {
            "extension": [
              {
                "url": "http://nictiz.nl/fhir/StructureDefinition/ext-ResourceCategory",
                "valueCodeableConcept": {
                  "coding": [
                    {
                      "system": "http://snomed.info/sct",
                      "code": "33633005",
                      "display": "voorschrijven"
                    }
                  ]
                }
              }
            ],
            "identifier": {
              "system": "urn:oid:2.16.840.1.113883.2.4.3.11.999.77.16076005.1",
              "value": "MBH_200_zonderkeerdosis_MA"
            },
            "display": "relatie naar medicatieafspraak"
          }
        ],
        "dosage": [
          {
            "additionalInstruction": [
              {
                "coding": [
                  {
                    "system": "https://referentiemodel.nhg.org/tabellen/nhg-tabel-25-gebruiksvoorschrift#aanvullend-numeriek",
                    "code": "1018",
                    "display": "aanbrengen"
                  }
                ]
              }
            ],
            "timing": {
              "repeat": {
                "frequency": 3,
                "period": 1,
                "periodUnit": "d"
              }
            },
            "route": {
              "coding": [
                {
                  "system": "urn:oid:2.16.840.1.113883.2.4.4.9",
                  "code": "53",
                  "display": "cutaan"
                }
              ]
            }
          }
        ]
      },
      "request": {
        "method": "POST",
        "url": "MedicationStatement"
      }
    },
    {
      "fullUrl": "urn:uuid:c33f0582-6a95-11ec-0000-020000000000",
      "resource": {
        "resourceType": "MedicationStatement",
        "meta": {
          "profile": [
            "http://nictiz.nl/fhir/StructureDefinition/mp-MedicationUse2"
          ]
        },
        "extension": [
          {
            "url": "http://nictiz.nl/fhir/StructureDefinition/ext-RenderedDosageInstruction",
            "valueString": "Vanaf T, tot en met T + 14 dagen, 2 maal per dag 0.5 stuk, oraal"
          },
          {
            "url": "http://nictiz.nl/fhir/StructureDefinition/ext-MedicationUse2.Prescriber",
            "valueReference": {
              "reference": "urn:uuid:c33f04ce-6a95-11ec-0000-020000000000",
              "type": "PractitionerRole",
              "display": "Healthcare professional (role), Peter van Pulver, Huisartsen, niet nader gespecificeerd"
            }
          },
          {
            "url": "http://nictiz.nl/fhir/StructureDefinition/ext-AsAgreedIndicator",
            "valueBoolean": true
          },
          {
            "url": "http://nictiz.nl/fhir/StructureDefinition/ext-PharmaceuticalTreatment.Identifier",
            "valueIdentifier": {
              "system": "urn:oid:2.16.840.1.113883.2.4.3.11.999.77.1.1",
              "value": "MBH_200_bijzonderekeerdosis"
            }
          },
          {
            "url": "http://nictiz.nl/fhir/StructureDefinition/ext-MedicationUse2.Author",
            "valueReference": {
              "reference": "urn:uuid:c33f04ce-6a95-11ec-0000-020000000000",
              "type": "PractitionerRole",
              "display": "Healthcare professional (role), Peter van Pulver, Huisartsen, niet nader gespecificeerd"
            }
          }
        ],
        "identifier": [
          {
            "system": "urn:oid:2.16.840.1.113883.2.4.3.11.999.77.6.1",
            "value": "MBH_200_bijzonderekeerdosis_MGB"
          }
        ],
        "status": "active",
        "category": {
          "coding": [
            {
              "system": "http://snomed.info/sct",
              "code": "422979000",
              "display": "bevinding betreffende gedrag met betrekking tot medicatieregime"
            }
          ]
        },
        "medicationReference": {
          "reference": "urn:uuid:c33f0762-6a95-11ec-0000-020000000000",
          "type": "Medication",
          "display": "NAPROXEN 500MG TABLET"
        },
        "subject": {
          "reference": "urn:uuid:c33f04b0-6a95-11ec-0000-020000000000",
          "type": "Patient",
          "display": "Patient, M. XXX_Rambaldo"
        },
        "effectivePeriod": {
          "start": "${DATE, T, D, +0}T00:00:00+02:00",
          "end": "${DATE, T, D, +14}T23:59:59+02:00"
        },
        "dateAsserted": "${DATE, T, D, +14}T23:59:59+02:00",
        "derivedFrom": [
          {
            "extension": [
              {
                "url": "http://nictiz.nl/fhir/StructureDefinition/ext-ResourceCategory",
                "valueCodeableConcept": {
                  "coding": [
                    {
                      "system": "http://snomed.info/sct",
                      "code": "33633005",
                      "display": "voorschrijven"
                    }
                  ]
                }
              }
            ],
            "identifier": {
              "system": "urn:oid:2.16.840.1.113883.2.4.3.11.999.77.16076005.1",
              "value": "MBH_200_bijzonderekeerdosis_MA"
            },
            "display": "relatie naar medicatieafspraak"
          }
        ],
        "dosage": [
          {
            "timing": {
              "repeat": {
                "frequency": 2,
                "period": 1,
                "periodUnit": "d"
              }
            },
            "route": {
              "coding": [
                {
                  "system": "urn:oid:2.16.840.1.113883.2.4.4.9",
                  "code": "9",
                  "display": "oraal"
                }
              ]
            },
            "doseAndRate": [
              {
                "doseQuantity": {
                  "extension": [
                    {
                      "url": "http://hl7.org/fhir/StructureDefinition/iso21090-PQ-translation",
                      "valueQuantity": {
                        "value": 0.5,
                        "unit": "stuk",
                        "system": "urn:oid:2.16.840.1.113883.2.4.4.1.900.2",
                        "code": "245"
                      }
                    }
                  ],
                  "value": 0.5,
                  "unit": "stuk",
                  "system": "http://unitsofmeasure.org",
                  "code": "1"
                }
              }
            ]
          }
        ]
      },
      "request": {
        "method": "POST",
        "url": "MedicationStatement"
      }
    },
    {
      "fullUrl": "urn:uuid:c33f05a0-6a95-11ec-0000-020000000000",
      "resource": {
        "resourceType": "MedicationStatement",
        "meta": {
          "profile": [
            "http://nictiz.nl/fhir/StructureDefinition/mp-MedicationUse2"
          ]
        },
        "extension": [
          {
            "url": "http://nictiz.nl/fhir/StructureDefinition/ext-RenderedDosageInstruction",
            "valueString": "Vanaf T, tot en met T + 21 dagen, 2 maal per dag 10 à 15 ml, Eerst oplossen in water, mond spoelen, daarna uitspugen, OROMUCOSAAL"
          },
          {
            "url": "http://nictiz.nl/fhir/StructureDefinition/ext-MedicationUse2.Prescriber",
            "valueReference": {
              "reference": "urn:uuid:c33f04ce-6a95-11ec-0000-020000000000",
              "type": "PractitionerRole",
              "display": "Healthcare professional (role), Peter van Pulver, Huisartsen, niet nader gespecificeerd"
            }
          },
          {
            "url": "http://nictiz.nl/fhir/StructureDefinition/ext-AsAgreedIndicator",
            "valueBoolean": true
          },
          {
            "url": "http://nictiz.nl/fhir/StructureDefinition/ext-PharmaceuticalTreatment.Identifier",
            "valueIdentifier": {
              "system": "urn:oid:2.16.840.1.113883.2.4.3.11.999.77.1.1",
              "value": "MBH_200_variabelehoeveelheid2"
            }
          },
          {
            "url": "http://nictiz.nl/fhir/StructureDefinition/ext-MedicationUse2.Author",
            "valueReference": {
              "reference": "urn:uuid:c33f04ce-6a95-11ec-0000-020000000000",
              "type": "PractitionerRole",
              "display": "Healthcare professional (role), Peter van Pulver, Huisartsen, niet nader gespecificeerd"
            }
          }
        ],
        "identifier": [
          {
            "system": "urn:oid:2.16.840.1.113883.2.4.3.11.999.77.6.1",
            "value": "MBH_200_variabelehoeveelheid2_MGB"
          }
        ],
        "status": "active",
        "category": {
          "coding": [
            {
              "system": "http://snomed.info/sct",
              "code": "422979000",
              "display": "bevinding betreffende gedrag met betrekking tot medicatieregime"
            }
          ]
        },
        "medicationReference": {
          "reference": "urn:uuid:c33f0780-6a95-11ec-0000-020000000000",
          "type": "Medication",
          "display": "WATERSTOFPEROXIDE CONC VOOR MONDSPOELING 30MG/ML"
        },
        "subject": {
          "reference": "urn:uuid:c33f04b0-6a95-11ec-0000-020000000000",
          "type": "Patient",
          "display": "Patient, M. XXX_Rambaldo"
        },
        "effectivePeriod": {
          "start": "${DATE, T, D, +0}T00:00:00+02:00",
          "end": "${DATE, T, D, +21}T23:59:59+02:00"
        },
        "dateAsserted": "${DATE, T, D, +21}T23:59:59+02:00",
        "informationSource": {
          "reference": "urn:uuid:c33f04b0-6a95-11ec-0000-020000000000",
          "type": "Patient",
          "display": "Patient, M. XXX_Rambaldo"
        },
        "derivedFrom": [
          {
            "extension": [
              {
                "url": "http://nictiz.nl/fhir/StructureDefinition/ext-ResourceCategory",
                "valueCodeableConcept": {
                  "coding": [
                    {
                      "system": "http://snomed.info/sct",
                      "code": "33633005",
                      "display": "voorschrijven"
                    }
                  ]
                }
              }
            ],
            "identifier": {
              "system": "urn:oid:2.16.840.1.113883.2.4.3.11.999.77.16076005.1",
              "value": "MBH_200_variabelehoeveelheid2_MA"
            },
            "display": "relatie naar medicatieafspraak"
          }
        ],
        "dosage": [
          {
            "additionalInstruction": [
              {
                "coding": [
                  {
                    "system": "https://referentiemodel.nhg.org/tabellen/nhg-tabel-25-gebruiksvoorschrift#aanvullend-numeriek",
                    "code": "27",
                    "display": "Eerst oplossen in water"
                  }
                ]
              },
              {
                "coding": [
                  {
                    "system": "https://referentiemodel.nhg.org/tabellen/nhg-tabel-25-gebruiksvoorschrift#aanvullend-numeriek",
                    "code": "69",
                    "display": "mond spoelen, daarna uitspugen"
                  }
                ]
              }
            ],
            "timing": {
              "repeat": {
                "frequency": 2,
                "period": 1,
                "periodUnit": "d"
              }
            },
            "route": {
              "coding": [
                {
                  "system": "urn:oid:2.16.840.1.113883.2.4.4.9",
                  "code": "34",
                  "display": "OROMUCOSAAL"
                }
              ]
            },
            "doseAndRate": [
              {
                "doseRange": {
                  "low": {
                    "extension": [
                      {
                        "url": "http://hl7.org/fhir/StructureDefinition/iso21090-PQ-translation",
                        "valueQuantity": {
                          "value": 10,
                          "unit": "milliliter",
                          "system": "urn:oid:2.16.840.1.113883.2.4.4.1.900.2",
                          "code": "233"
                        }
                      }
                    ],
                    "value": 10,
                    "unit": "milliliter",
                    "system": "http://unitsofmeasure.org",
                    "code": "ml"
                  },
                  "high": {
                    "extension": [
                      {
                        "url": "http://hl7.org/fhir/StructureDefinition/iso21090-PQ-translation",
                        "valueQuantity": {
                          "value": 15,
                          "unit": "milliliter",
                          "system": "urn:oid:2.16.840.1.113883.2.4.4.1.900.2",
                          "code": "233"
                        }
                      }
                    ],
                    "value": 15,
                    "unit": "milliliter",
                    "system": "http://unitsofmeasure.org",
                    "code": "ml"
                  }
                }
              }
            ]
          }
        ]
      },
      "request": {
        "method": "POST",
        "url": "MedicationStatement"
      }
    },
    {
      "fullUrl": "urn:uuid:c33f05be-6a95-11ec-0000-020000000000",
      "resource": {
        "resourceType": "MedicationStatement",
        "meta": {
          "profile": [
            "http://nictiz.nl/fhir/StructureDefinition/mp-MedicationUse2"
          ]
        },
        "extension": [
          {
            "url": "http://nictiz.nl/fhir/StructureDefinition/ext-RenderedDosageInstruction",
            "valueString": "Vanaf T, tot en met T + 14 dagen, elke dag om 08:00, 14:00 en 20:00 1 stuk, oraal"
          },
          {
            "url": "http://nictiz.nl/fhir/StructureDefinition/ext-MedicationUse2.Prescriber",
            "valueReference": {
              "reference": "urn:uuid:c33f04ce-6a95-11ec-0000-020000000000",
              "type": "PractitionerRole",
              "display": "Healthcare professional (role), Peter van Pulver, Huisartsen, niet nader gespecificeerd"
            }
          },
          {
            "url": "http://nictiz.nl/fhir/StructureDefinition/ext-AsAgreedIndicator",
            "valueBoolean": true
          },
          {
            "url": "http://nictiz.nl/fhir/StructureDefinition/ext-PharmaceuticalTreatment.Identifier",
            "valueIdentifier": {
              "system": "urn:oid:2.16.840.1.113883.2.4.3.11.999.77.1.1",
              "value": "MBH_200_tijdstippen_flexibel"
            }
          },
          {
            "url": "http://nictiz.nl/fhir/StructureDefinition/ext-MedicationUse2.Author",
            "valueReference": {
              "reference": "urn:uuid:c33f04ce-6a95-11ec-0000-020000000000",
              "type": "PractitionerRole",
              "display": "Healthcare professional (role), Peter van Pulver, Huisartsen, niet nader gespecificeerd"
            }
          }
        ],
        "identifier": [
          {
            "system": "urn:oid:2.16.840.1.113883.2.4.3.11.999.77.6.1",
            "value": "MBH_200_tijdstippen_flexibel_MGB"
          }
        ],
        "status": "active",
        "category": {
          "coding": [
            {
              "system": "http://snomed.info/sct",
              "code": "422979000",
              "display": "bevinding betreffende gedrag met betrekking tot medicatieregime"
            }
          ]
        },
        "medicationReference": {
          "reference": "urn:uuid:c33f079e-6a95-11ec-0000-020000000000",
          "type": "Medication",
          "display": "METFORMINE 500MG TABLET"
        },
        "subject": {
          "reference": "urn:uuid:c33f04b0-6a95-11ec-0000-020000000000",
          "type": "Patient",
          "display": "Patient, M. XXX_Rambaldo"
        },
        "effectivePeriod": {
          "start": "${DATE, T, D, +0}T00:00:00+02:00",
          "end": "${DATE, T, D, +14}T23:59:59+02:00"
        },
        "dateAsserted": "${DATE, T, D, +14}T23:59:59+02:00",
        "informationSource": {
          "reference": "urn:uuid:c33f04b0-6a95-11ec-0000-020000000000",
          "type": "Patient",
          "display": "Patient, M. XXX_Rambaldo"
        },
        "derivedFrom": [
          {
            "extension": [
              {
                "url": "http://nictiz.nl/fhir/StructureDefinition/ext-ResourceCategory",
                "valueCodeableConcept": {
                  "coding": [
                    {
                      "system": "http://snomed.info/sct",
                      "code": "33633005",
                      "display": "voorschrijven"
                    }
                  ]
                }
              }
            ],
            "identifier": {
              "system": "urn:oid:2.16.840.1.113883.2.4.3.11.999.77.16076005.1",
              "value": "MBH_200_tijdstippen_flexibel_MA"
            },
            "display": "relatie naar medicatieafspraak"
          }
        ],
        "dosage": [
          {
            "timing": {
              "repeat": {
                "extension": [
                  {
                    "url": "http://hl7.org/fhir/StructureDefinition/timing-exact",
                    "valueBoolean": false
                  }
                ],
                "timeOfDay": [
                  "08:00:00",
                  "14:00:00",
                  "20:00:00"
                ]
              }
            },
            "route": {
              "coding": [
                {
                  "system": "urn:oid:2.16.840.1.113883.2.4.4.9",
                  "code": "9",
                  "display": "oraal"
                }
              ]
            },
            "doseAndRate": [
              {
                "doseQuantity": {
                  "extension": [
                    {
                      "url": "http://hl7.org/fhir/StructureDefinition/iso21090-PQ-translation",
                      "valueQuantity": {
                        "value": 1,
                        "unit": "stuk",
                        "system": "urn:oid:2.16.840.1.113883.2.4.4.1.900.2",
                        "code": "245"
                      }
                    }
                  ],
                  "value": 1,
                  "unit": "stuk",
                  "system": "http://unitsofmeasure.org",
                  "code": "1"
                }
              }
            ]
          }
        ]
      },
      "request": {
        "method": "POST",
        "url": "MedicationStatement"
      }
    },
    {
      "fullUrl": "urn:uuid:c33f05dc-6a95-11ec-0000-020000000000",
      "resource": {
        "resourceType": "MedicationStatement",
        "meta": {
          "profile": [
            "http://nictiz.nl/fhir/StructureDefinition/mp-MedicationUse2"
          ]
        },
        "extension": [
          {
            "url": "http://nictiz.nl/fhir/StructureDefinition/ext-RenderedDosageInstruction",
            "valueString": "Vanaf T, tot en met T + 14 dagen, op maandag, woensdag en vrijdag, voor de nacht, aanbrengen, cutaan"
          },
          {
            "url": "http://nictiz.nl/fhir/StructureDefinition/ext-MedicationUse2.Prescriber",
            "valueReference": {
              "reference": "urn:uuid:c33f04ce-6a95-11ec-0000-020000000000",
              "type": "PractitionerRole",
              "display": "Healthcare professional (role), Peter van Pulver, Huisartsen, niet nader gespecificeerd"
            }
          },
          {
            "url": "http://nictiz.nl/fhir/StructureDefinition/ext-AsAgreedIndicator",
            "valueBoolean": true
          },
          {
            "url": "http://nictiz.nl/fhir/StructureDefinition/ext-PharmaceuticalTreatment.Identifier",
            "valueIdentifier": {
              "system": "urn:oid:2.16.840.1.113883.2.4.3.11.999.77.1.1",
              "value": "MBH_200_weekdagen"
            }
          },
          {
            "url": "http://nictiz.nl/fhir/StructureDefinition/ext-MedicationUse2.Author",
            "valueReference": {
              "reference": "urn:uuid:c33f04ce-6a95-11ec-0000-020000000000",
              "type": "PractitionerRole",
              "display": "Healthcare professional (role), Peter van Pulver, Huisartsen, niet nader gespecificeerd"
            }
          }
        ],
        "identifier": [
          {
            "system": "urn:oid:2.16.840.1.113883.2.4.3.11.999.77.6.1",
            "value": "MBH_200_weekdagen_MGB"
          }
        ],
        "status": "active",
        "category": {
          "coding": [
            {
              "system": "http://snomed.info/sct",
              "code": "422979000",
              "display": "bevinding betreffende gedrag met betrekking tot medicatieregime"
            }
          ]
        },
        "medicationReference": {
          "reference": "urn:uuid:c33f07bc-6a95-11ec-0000-020000000000",
          "type": "Medication",
          "display": "IMIQUIMOD 50MG/G CREME"
        },
        "subject": {
          "reference": "urn:uuid:c33f04b0-6a95-11ec-0000-020000000000",
          "type": "Patient",
          "display": "Patient, M. XXX_Rambaldo"
        },
        "effectivePeriod": {
          "start": "${DATE, T, D, +0}T00:00:00+02:00",
          "end": "${DATE, T, D, +14}T23:59:59+02:00"
        },
        "dateAsserted": "${DATE, T, D, +14}T23:59:59+02:00",
        "informationSource": {
          "reference": "urn:uuid:c33f04b0-6a95-11ec-0000-020000000000",
          "type": "Patient",
          "display": "Patient, M. XXX_Rambaldo"
        },
        "derivedFrom": [
          {
            "extension": [
              {
                "url": "http://nictiz.nl/fhir/StructureDefinition/ext-ResourceCategory",
                "valueCodeableConcept": {
                  "coding": [
                    {
                      "system": "http://snomed.info/sct",
                      "code": "33633005",
                      "display": "voorschrijven"
                    }
                  ]
                }
              }
            ],
            "identifier": {
              "system": "urn:oid:2.16.840.1.113883.2.4.3.11.999.77.16076005.1",
              "value": "MBH_200_weekdagen_MA"
            },
            "display": "relatie naar medicatieafspraak"
          }
        ],
        "dosage": [
          {
            "additionalInstruction": [
              {
                "coding": [
                  {
                    "system": "https://referentiemodel.nhg.org/tabellen/nhg-tabel-25-gebruiksvoorschrift#aanvullend-numeriek",
                    "code": "1128",
                    "display": "voor de nacht"
                  }
                ]
              },
              {
                "coding": [
                  {
                    "system": "https://referentiemodel.nhg.org/tabellen/nhg-tabel-25-gebruiksvoorschrift#aanvullend-numeriek",
                    "code": "1018",
                    "display": "aanbrengen"
                  }
                ]
              }
            ],
            "timing": {
              "repeat": {
                "dayOfWeek": [
                  "mon",
                  "wed",
                  "fri"
                ]
              }
            },
            "route": {
              "coding": [
                {
                  "system": "urn:oid:2.16.840.1.113883.2.4.4.9",
                  "code": "53",
                  "display": "cutaan"
                }
              ]
            }
          }
        ]
      },
      "request": {
        "method": "POST",
        "url": "MedicationStatement"
      }
    },
    {
      "fullUrl": "urn:uuid:c33f05fa-6a95-11ec-0000-020000000000",
      "resource": {
        "resourceType": "MedicationStatement",
        "meta": {
          "profile": [
            "http://nictiz.nl/fhir/StructureDefinition/mp-MedicationUse2"
          ]
        },
        "extension": [
          {
            "url": "http://nictiz.nl/fhir/StructureDefinition/ext-RenderedDosageInstruction",
            "valueString": "Vanaf T, tot en met T + 14 dagen, 1 stuk 's avonds, oraal"
          },
          {
            "url": "http://nictiz.nl/fhir/StructureDefinition/ext-MedicationUse2.Prescriber",
            "valueReference": {
              "reference": "urn:uuid:c33f04ce-6a95-11ec-0000-020000000000",
              "type": "PractitionerRole",
              "display": "Healthcare professional (role), Peter van Pulver, Huisartsen, niet nader gespecificeerd"
            }
          },
          {
            "url": "http://nictiz.nl/fhir/StructureDefinition/ext-AsAgreedIndicator",
            "valueBoolean": true
          },
          {
            "url": "http://nictiz.nl/fhir/StructureDefinition/ext-PharmaceuticalTreatment.Identifier",
            "valueIdentifier": {
              "system": "urn:oid:2.16.840.1.113883.2.4.3.11.999.77.1.1",
              "value": "MBH_200_dagdeel"
            }
          },
          {
            "url": "http://nictiz.nl/fhir/StructureDefinition/ext-MedicationUse2.Author",
            "valueReference": {
              "reference": "urn:uuid:c33f04ce-6a95-11ec-0000-020000000000",
              "type": "PractitionerRole",
              "display": "Healthcare professional (role), Peter van Pulver, Huisartsen, niet nader gespecificeerd"
            }
          }
        ],
        "identifier": [
          {
            "system": "urn:oid:2.16.840.1.113883.2.4.3.11.999.77.6.1",
            "value": "MBH_200_dagdeel_MGB"
          }
        ],
        "status": "active",
        "category": {
          "coding": [
            {
              "system": "http://snomed.info/sct",
              "code": "422979000",
              "display": "bevinding betreffende gedrag met betrekking tot medicatieregime"
            }
          ]
        },
        "medicationReference": {
          "reference": "urn:uuid:c33f07da-6a95-11ec-0000-020000000000",
          "type": "Medication",
          "display": "EZETIMIB/SIMVASTATINE 10/20"
        },
        "subject": {
          "reference": "urn:uuid:c33f04b0-6a95-11ec-0000-020000000000",
          "type": "Patient",
          "display": "Patient, M. XXX_Rambaldo"
        },
        "effectivePeriod": {
          "start": "${DATE, T, D, +0}T00:00:00+02:00",
          "end": "${DATE, T, D, +14}T23:59:59+02:00"
        },
        "dateAsserted": "${DATE, T, D, +14}T23:59:59+02:00",
        "informationSource": {
          "reference": "urn:uuid:c33f04b0-6a95-11ec-0000-020000000000",
          "type": "Patient",
          "display": "Patient, M. XXX_Rambaldo"
        },
        "derivedFrom": [
          {
            "extension": [
              {
                "url": "http://nictiz.nl/fhir/StructureDefinition/ext-ResourceCategory",
                "valueCodeableConcept": {
                  "coding": [
                    {
                      "system": "http://snomed.info/sct",
                      "code": "33633005",
                      "display": "voorschrijven"
                    }
                  ]
                }
              }
            ],
            "identifier": {
              "system": "urn:oid:2.16.840.1.113883.2.4.3.11.999.77.16076005.1",
              "value": "MBH_200_dagdeel_MA"
            },
            "display": "relatie naar medicatieafspraak"
          }
        ],
        "dosage": [
          {
            "timing": {
              "repeat": {
                "when": [
                  "EVE"
                ]
              }
            },
            "route": {
              "coding": [
                {
                  "system": "urn:oid:2.16.840.1.113883.2.4.4.9",
                  "code": "9",
                  "display": "oraal"
                }
              ]
            },
            "doseAndRate": [
              {
                "doseQuantity": {
                  "extension": [
                    {
                      "url": "http://hl7.org/fhir/StructureDefinition/iso21090-PQ-translation",
                      "valueQuantity": {
                        "value": 1,
                        "unit": "stuk",
                        "system": "urn:oid:2.16.840.1.113883.2.4.4.1.900.2",
                        "code": "245"
                      }
                    }
                  ],
                  "value": 1,
                  "unit": "stuk",
                  "system": "http://unitsofmeasure.org",
                  "code": "1"
                }
              }
            ]
          }
        ]
      },
      "request": {
        "method": "POST",
        "url": "MedicationStatement"
      }
    },
    {
      "fullUrl": "urn:uuid:c33f0618-6a95-11ec-0000-020000000000",
      "resource": {
        "resourceType": "MedicationStatement",
        "meta": {
          "profile": [
            "http://nictiz.nl/fhir/StructureDefinition/mp-MedicationUse2"
          ]
        },
        "extension": [
          {
            "url": "http://nictiz.nl/fhir/StructureDefinition/ext-RenderedDosageInstruction",
            "valueString": "Vanaf T, tot en met T + 14 dagen, cyclus van 28 dagen: steeds gedurende 21 dagen 1 maal per dag 1 stuk, oraal"
          },
          {
            "url": "http://nictiz.nl/fhir/StructureDefinition/ext-MedicationUse2.Prescriber",
            "valueReference": {
              "reference": "urn:uuid:c33f04ce-6a95-11ec-0000-020000000000",
              "type": "PractitionerRole",
              "display": "Healthcare professional (role), Peter van Pulver, Huisartsen, niet nader gespecificeerd"
            }
          },
          {
            "url": "http://nictiz.nl/fhir/StructureDefinition/ext-AsAgreedIndicator",
            "valueBoolean": true
          },
          {
            "url": "http://nictiz.nl/fhir/StructureDefinition/ext-PharmaceuticalTreatment.Identifier",
            "valueIdentifier": {
              "system": "urn:oid:2.16.840.1.113883.2.4.3.11.999.77.1.1",
              "value": "MBH_200_cyclischschema"
            }
          },
          {
            "url": "http://nictiz.nl/fhir/StructureDefinition/ext-MedicationUse2.Author",
            "valueReference": {
              "reference": "urn:uuid:c33f04ce-6a95-11ec-0000-020000000000",
              "type": "PractitionerRole",
              "display": "Healthcare professional (role), Peter van Pulver, Huisartsen, niet nader gespecificeerd"
            }
          }
        ],
        "modifierExtension": [
          {
            "url": "http://nictiz.nl/fhir/StructureDefinition/ext-InstructionsForUse.RepeatPeriodCyclicalSchedule",
            "valueDuration": {
              "value": 28,
              "unit": "dag",
              "system": "http://unitsofmeasure.org",
              "code": "d"
            }
          }
        ],
        "identifier": [
          {
            "system": "urn:oid:2.16.840.1.113883.2.4.3.11.999.77.6.1",
            "value": "MBH_200_cyclischschema_MGB"
          }
        ],
        "status": "active",
        "category": {
          "coding": [
            {
              "system": "http://snomed.info/sct",
              "code": "422979000",
              "display": "bevinding betreffende gedrag met betrekking tot medicatieregime"
            }
          ]
        },
        "medicationReference": {
          "reference": "urn:uuid:c33f07f8-6a95-11ec-0000-020000000000",
          "type": "Medication",
          "display": "ETHINYLESTRADIOL/DESOGESTREL TABLET 30/150UG"
        },
        "subject": {
          "reference": "urn:uuid:c33f04b0-6a95-11ec-0000-020000000000",
          "type": "Patient",
          "display": "Patient, M. XXX_Rambaldo"
        },
        "effectivePeriod": {
          "start": "${DATE, T, D, +0}T00:00:00+02:00",
          "end": "${DATE, T, D, +14}T23:59:59+02:00"
        },
        "dateAsserted": "${DATE, T, D, +14}T23:59:59+02:00",
        "informationSource": {
          "reference": "urn:uuid:c33f04b0-6a95-11ec-0000-020000000000",
          "type": "Patient",
          "display": "Patient, M. XXX_Rambaldo"
        },
        "derivedFrom": [
          {
            "extension": [
              {
                "url": "http://nictiz.nl/fhir/StructureDefinition/ext-ResourceCategory",
                "valueCodeableConcept": {
                  "coding": [
                    {
                      "system": "http://snomed.info/sct",
                      "code": "33633005",
                      "display": "voorschrijven"
                    }
                  ]
                }
              }
            ],
            "identifier": {
              "system": "urn:oid:2.16.840.1.113883.2.4.3.11.999.77.16076005.1",
              "value": "MBH_200_cyclischschema_MA"
            },
            "display": "relatie naar medicatieafspraak"
          }
        ],
        "dosage": [
          {
            "timing": {
              "repeat": {
                "boundsDuration": {
                  "value": 21,
                  "unit": "dag",
                  "system": "http://unitsofmeasure.org",
                  "code": "d"
                },
                "frequency": 1,
                "period": 1,
                "periodUnit": "d"
              }
            },
            "route": {
              "coding": [
                {
                  "system": "urn:oid:2.16.840.1.113883.2.4.4.9",
                  "code": "9",
                  "display": "oraal"
                }
              ]
            },
            "doseAndRate": [
              {
                "doseQuantity": {
                  "extension": [
                    {
                      "url": "http://hl7.org/fhir/StructureDefinition/iso21090-PQ-translation",
                      "valueQuantity": {
                        "value": 1,
                        "unit": "stuk",
                        "system": "urn:oid:2.16.840.1.113883.2.4.4.1.900.2",
                        "code": "245"
                      }
                    }
                  ],
                  "value": 1,
                  "unit": "stuk",
                  "system": "http://unitsofmeasure.org",
                  "code": "1"
                }
              }
            ]
          }
        ]
      },
      "request": {
        "method": "POST",
        "url": "MedicationStatement"
      }
    },
    {
      "fullUrl": "urn:uuid:c33f0636-6a95-11ec-0000-020000000000",
      "resource": {
        "resourceType": "MedicationStatement",
        "meta": {
          "profile": [
            "http://nictiz.nl/fhir/StructureDefinition/mp-MedicationUse2"
          ]
        },
        "extension": [
          {
            "url": "http://nictiz.nl/fhir/StructureDefinition/ext-RenderedDosageInstruction",
            "valueString": "Vanaf T, tot en met T + 21 dagen, eerst gedurende 2 weken 1 maal per dag 3 gram, dan gedurende 3 weken 1 maal per dag 2 gram, dan gedurende 6 dagen 1 maal per dag 1 gram, cutaan"
          },
          {
            "url": "http://nictiz.nl/fhir/StructureDefinition/ext-MedicationUse2.Prescriber",
            "valueReference": {
              "reference": "urn:uuid:c33f04ce-6a95-11ec-0000-020000000000",
              "type": "PractitionerRole",
              "display": "Healthcare professional (role), Peter van Pulver, Huisartsen, niet nader gespecificeerd"
            }
          },
          {
            "url": "http://nictiz.nl/fhir/StructureDefinition/ext-AsAgreedIndicator",
            "valueBoolean": true
          },
          {
            "url": "http://nictiz.nl/fhir/StructureDefinition/ext-PharmaceuticalTreatment.Identifier",
            "valueIdentifier": {
              "system": "urn:oid:2.16.840.1.113883.2.4.3.11.999.77.1.1",
              "value": "MBH_200_afbouwschema"
            }
          },
          {
            "url": "http://nictiz.nl/fhir/StructureDefinition/ext-MedicationUse2.Author",
            "valueReference": {
              "reference": "urn:uuid:c33f04ce-6a95-11ec-0000-020000000000",
              "type": "PractitionerRole",
              "display": "Healthcare professional (role), Peter van Pulver, Huisartsen, niet nader gespecificeerd"
            }
          }
        ],
        "identifier": [
          {
            "system": "urn:oid:2.16.840.1.113883.2.4.3.11.999.77.6.1",
            "value": "MBH_200_afbouwschema_MGB"
          }
        ],
        "status": "active",
        "category": {
          "coding": [
            {
              "system": "http://snomed.info/sct",
              "code": "422979000",
              "display": "bevinding betreffende gedrag met betrekking tot medicatieregime"
            }
          ]
        },
        "medicationReference": {
          "reference": "urn:uuid:c33f0816-6a95-11ec-0000-020000000000",
          "type": "Medication",
          "display": "Fusidinezuur creme 20mg/g"
        },
        "subject": {
          "reference": "urn:uuid:c33f04b0-6a95-11ec-0000-020000000000",
          "type": "Patient",
          "display": "Patient, M. XXX_Rambaldo"
        },
        "effectivePeriod": {
          "start": "${DATE, T, D, +0}T00:00:00+02:00",
          "end": "${DATE, T, D, +21}T23:59:59+02:00"
        },
        "dateAsserted": "${DATE, T, D, +21}T23:59:59+02:00",
        "informationSource": {
          "reference": "urn:uuid:c33f04b0-6a95-11ec-0000-020000000000",
          "type": "Patient",
          "display": "Patient, M. XXX_Rambaldo"
        },
        "derivedFrom": [
          {
            "extension": [
              {
                "url": "http://nictiz.nl/fhir/StructureDefinition/ext-ResourceCategory",
                "valueCodeableConcept": {
                  "coding": [
                    {
                      "system": "http://snomed.info/sct",
                      "code": "33633005",
                      "display": "voorschrijven"
                    }
                  ]
                }
              }
            ],
            "identifier": {
              "system": "urn:oid:2.16.840.1.113883.2.4.3.11.999.77.16076005.1",
              "value": "MBH_200_afbouwschema_MA"
            },
            "display": "relatie naar medicatieafspraak"
          }
        ],
        "dosage": [
          {
            "sequence": 1,
            "timing": {
              "repeat": {
                "boundsDuration": {
                  "value": 2,
                  "unit": "week",
                  "system": "http://unitsofmeasure.org",
                  "code": "wk"
                },
                "frequency": 1,
                "period": 1,
                "periodUnit": "d"
              }
            },
            "route": {
              "coding": [
                {
                  "system": "urn:oid:2.16.840.1.113883.2.4.4.9",
                  "code": "53",
                  "display": "cutaan"
                }
              ]
            },
            "doseAndRate": [
              {
                "doseQuantity": {
                  "extension": [
                    {
                      "url": "http://hl7.org/fhir/StructureDefinition/iso21090-PQ-translation",
                      "valueQuantity": {
                        "value": 3,
                        "unit": "gram",
                        "system": "urn:oid:2.16.840.1.113883.2.4.4.1.900.2",
                        "code": "215"
                      }
                    }
                  ],
                  "value": 3,
                  "unit": "gram",
                  "system": "http://unitsofmeasure.org",
                  "code": "g"
                }
              }
            ]
          },
          {
            "sequence": 2,
            "timing": {
              "repeat": {
                "boundsDuration": {
                  "value": 3,
                  "unit": "week",
                  "system": "http://unitsofmeasure.org",
                  "code": "wk"
                },
                "frequency": 1,
                "period": 1,
                "periodUnit": "d"
              }
            },
            "route": {
              "coding": [
                {
                  "system": "urn:oid:2.16.840.1.113883.2.4.4.9",
                  "code": "53",
                  "display": "cutaan"
                }
              ]
            },
            "doseAndRate": [
              {
                "doseQuantity": {
                  "extension": [
                    {
                      "url": "http://hl7.org/fhir/StructureDefinition/iso21090-PQ-translation",
                      "valueQuantity": {
                        "value": 2,
                        "unit": "gram",
                        "system": "urn:oid:2.16.840.1.113883.2.4.4.1.900.2",
                        "code": "215"
                      }
                    }
                  ],
                  "value": 2,
                  "unit": "gram",
                  "system": "http://unitsofmeasure.org",
                  "code": "g"
                }
              }
            ]
          },
          {
            "sequence": 3,
            "timing": {
              "repeat": {
                "boundsDuration": {
                  "value": 6,
                  "unit": "dag",
                  "system": "http://unitsofmeasure.org",
                  "code": "d"
                },
                "frequency": 1,
                "period": 1,
                "periodUnit": "d"
              }
            },
            "route": {
              "coding": [
                {
                  "system": "urn:oid:2.16.840.1.113883.2.4.4.9",
                  "code": "53",
                  "display": "cutaan"
                }
              ]
            },
            "doseAndRate": [
              {
                "doseQuantity": {
                  "extension": [
                    {
                      "url": "http://hl7.org/fhir/StructureDefinition/iso21090-PQ-translation",
                      "valueQuantity": {
                        "value": 1,
                        "unit": "gram",
                        "system": "urn:oid:2.16.840.1.113883.2.4.4.1.900.2",
                        "code": "215"
                      }
                    }
                  ],
                  "value": 1,
                  "unit": "gram",
                  "system": "http://unitsofmeasure.org",
                  "code": "g"
                }
              }
            ]
          }
        ]
      },
      "request": {
        "method": "POST",
        "url": "MedicationStatement"
      }
    },
    {
      "fullUrl": "urn:uuid:c33f0654-6a95-11ec-0000-020000000000",
      "resource": {
        "resourceType": "MedicationStatement",
        "meta": {
          "profile": [
            "http://nictiz.nl/fhir/StructureDefinition/mp-MedicationUse2"
          ]
        },
        "extension": [
          {
            "url": "http://nictiz.nl/fhir/StructureDefinition/ext-RenderedDosageInstruction",
            "valueString": "Vanaf T, tot en met T + 21 dagen, Bij hoest 1 à 2 stuks , maximaal 6 stuks per dag, oraal"
          },
          {
            "url": "http://nictiz.nl/fhir/StructureDefinition/ext-MedicationUse2.Prescriber",
            "valueReference": {
              "reference": "urn:uuid:c33f04ce-6a95-11ec-0000-020000000000",
              "type": "PractitionerRole",
              "display": "Healthcare professional (role), Peter van Pulver, Huisartsen, niet nader gespecificeerd"
            }
          },
          {
            "url": "http://nictiz.nl/fhir/StructureDefinition/ext-AsAgreedIndicator",
            "valueBoolean": true
          },
          {
            "url": "http://nictiz.nl/fhir/StructureDefinition/ext-PharmaceuticalTreatment.Identifier",
            "valueIdentifier": {
              "system": "urn:oid:2.16.840.1.113883.2.4.3.11.999.77.1.1",
              "value": "MBH_200_variabelehoeveelheidenmaximum"
            }
          },
          {
            "url": "http://nictiz.nl/fhir/StructureDefinition/ext-MedicationUse2.Author",
            "valueReference": {
              "reference": "urn:uuid:c33f04ce-6a95-11ec-0000-020000000000",
              "type": "PractitionerRole",
              "display": "Healthcare professional (role), Peter van Pulver, Huisartsen, niet nader gespecificeerd"
            }
          }
        ],
        "identifier": [
          {
            "system": "urn:oid:2.16.840.1.113883.2.4.3.11.999.77.6.1",
            "value": "MBH_200_variabelehoeveelheidenmaximum_MGB"
          }
        ],
        "status": "active",
        "category": {
          "coding": [
            {
              "system": "http://snomed.info/sct",
              "code": "422979000",
              "display": "bevinding betreffende gedrag met betrekking tot medicatieregime"
            }
          ]
        },
        "medicationReference": {
          "reference": "urn:uuid:c33f0834-6a95-11ec-0000-020000000000",
          "type": "Medication",
          "display": "CODEINE TABLET 10MG (FOSFAAT)"
        },
        "subject": {
          "reference": "urn:uuid:c33f04b0-6a95-11ec-0000-020000000000",
          "type": "Patient",
          "display": "Patient, M. XXX_Rambaldo"
        },
        "effectivePeriod": {
          "start": "${DATE, T, D, +0}T00:00:00+02:00",
          "end": "${DATE, T, D, +21}T23:59:59+02:00"
        },
        "dateAsserted": "${DATE, T, D, +21}T23:59:59+02:00",
        "informationSource": {
          "reference": "urn:uuid:c33f04b0-6a95-11ec-0000-020000000000",
          "type": "Patient",
          "display": "Patient, M. XXX_Rambaldo"
        },
        "derivedFrom": [
          {
            "extension": [
              {
                "url": "http://nictiz.nl/fhir/StructureDefinition/ext-ResourceCategory",
                "valueCodeableConcept": {
                  "coding": [
                    {
                      "system": "http://snomed.info/sct",
                      "code": "33633005",
                      "display": "voorschrijven"
                    }
                  ]
                }
              }
            ],
            "identifier": {
              "system": "urn:oid:2.16.840.1.113883.2.4.3.11.999.77.16076005.1",
              "value": "MBH_200_variabelehoeveelheidenmaximum_MA"
            },
            "display": "relatie naar medicatieafspraak"
          }
        ],
        "dosage": [
          {
            "asNeededCodeableConcept": {
              "coding": [
                {
                  "system": "https://referentiemodel.nhg.org/tabellen/nhg-tabel-25-gebruiksvoorschrift#aanvullend-numeriek",
                  "code": "1387",
                  "display": "Bij hoest"
                }
              ]
            },
            "route": {
              "coding": [
                {
                  "system": "urn:oid:2.16.840.1.113883.2.4.4.9",
                  "code": "9",
                  "display": "oraal"
                }
              ]
            },
            "doseAndRate": [
              {
                "doseRange": {
                  "low": {
                    "extension": [
                      {
                        "url": "http://hl7.org/fhir/StructureDefinition/iso21090-PQ-translation",
                        "valueQuantity": {
                          "value": 1,
                          "unit": "stuk",
                          "system": "urn:oid:2.16.840.1.113883.2.4.4.1.900.2",
                          "code": "245"
                        }
                      }
                    ],
                    "value": 1,
                    "unit": "stuk",
                    "system": "http://unitsofmeasure.org",
                    "code": "1"
                  },
                  "high": {
                    "extension": [
                      {
                        "url": "http://hl7.org/fhir/StructureDefinition/iso21090-PQ-translation",
                        "valueQuantity": {
                          "value": 2,
                          "unit": "stuk",
                          "system": "urn:oid:2.16.840.1.113883.2.4.4.1.900.2",
                          "code": "245"
                        }
                      }
                    ],
                    "value": 2,
                    "unit": "stuk",
                    "system": "http://unitsofmeasure.org",
                    "code": "1"
                  }
                }
              }
            ],
            "maxDosePerPeriod": {
              "numerator": {
                "extension": [
                  {
                    "url": "http://hl7.org/fhir/StructureDefinition/iso21090-PQ-translation",
                    "valueQuantity": {
                      "value": 6,
                      "unit": "stuk",
                      "system": "urn:oid:2.16.840.1.113883.2.4.4.1.900.2",
                      "code": "245"
                    }
                  }
                ],
                "value": 6,
                "unit": "stuk",
                "system": "http://unitsofmeasure.org",
                "code": "1"
              },
              "denominator": {
                "value": 1,
                "unit": "dag",
                "system": "http://unitsofmeasure.org",
                "code": "d"
              }
            }
          }
        ]
      },
      "request": {
        "method": "POST",
        "url": "MedicationStatement"
      }
    },
    {
      "fullUrl": "urn:uuid:c33f0672-6a95-11ec-0000-020000000000",
      "resource": {
        "resourceType": "MedicationStatement",
        "meta": {
          "profile": [
            "http://nictiz.nl/fhir/StructureDefinition/mp-MedicationUse2"
          ]
        },
        "extension": [
          {
            "url": "http://nictiz.nl/fhir/StructureDefinition/ext-RenderedDosageInstruction",
            "valueString": "Vanaf T, tot en met T + 14 dagen, Zo nodig 1 maal per dag 1 stuk, Oraal"
          },
          {
            "url": "http://nictiz.nl/fhir/StructureDefinition/ext-MedicationUse2.Prescriber",
            "valueReference": {
              "reference": "urn:uuid:c33f04ce-6a95-11ec-0000-020000000000",
              "type": "PractitionerRole",
              "display": "Healthcare professional (role), Peter van Pulver, Huisartsen, niet nader gespecificeerd"
            }
          },
          {
            "url": "http://nictiz.nl/fhir/StructureDefinition/ext-AsAgreedIndicator",
            "valueBoolean": true
          },
          {
            "url": "http://nictiz.nl/fhir/StructureDefinition/ext-PharmaceuticalTreatment.Identifier",
            "valueIdentifier": {
              "system": "urn:oid:2.16.840.1.113883.2.4.3.11.999.77.1.1",
              "value": "MBH_200_zonodig"
            }
          },
          {
            "url": "http://nictiz.nl/fhir/StructureDefinition/ext-MedicationUse2.Author",
            "valueReference": {
              "reference": "urn:uuid:c33f04ce-6a95-11ec-0000-020000000000",
              "type": "PractitionerRole",
              "display": "Healthcare professional (role), Peter van Pulver, Huisartsen, niet nader gespecificeerd"
            }
          }
        ],
        "identifier": [
          {
            "system": "urn:oid:2.16.840.1.113883.2.4.3.11.999.77.6.1",
            "value": "MBH_200_zonodig_MGB"
          }
        ],
        "status": "active",
        "category": {
          "coding": [
            {
              "system": "http://snomed.info/sct",
              "code": "422979000",
              "display": "bevinding betreffende gedrag met betrekking tot medicatieregime"
            }
          ]
        },
        "medicationReference": {
          "reference": "urn:uuid:c33f088e-6a95-11ec-0000-020000000000",
          "type": "Medication",
          "display": "ACETYLSALICYLZUUR 100MG TAB"
        },
        "subject": {
          "reference": "urn:uuid:c33f04b0-6a95-11ec-0000-020000000000",
          "type": "Patient",
          "display": "Patient, M. XXX_Rambaldo"
        },
        "effectivePeriod": {
          "start": "${DATE, T, D, +0}T00:00:00+02:00",
          "end": "${DATE, T, D, +14}T23:59:59+02:00"
        },
        "dateAsserted": "${DATE, T, D, +14}T23:59:59+02:00",
        "informationSource": {
          "reference": "urn:uuid:c33f04b0-6a95-11ec-0000-020000000000",
          "type": "Patient",
          "display": "Patient, M. XXX_Rambaldo"
        },
        "derivedFrom": [
          {
            "extension": [
              {
                "url": "http://nictiz.nl/fhir/StructureDefinition/ext-ResourceCategory",
                "valueCodeableConcept": {
                  "coding": [
                    {
                      "system": "http://snomed.info/sct",
                      "code": "33633005",
                      "display": "voorschrijven"
                    }
                  ]
                }
              }
            ],
            "identifier": {
              "system": "urn:oid:2.16.840.1.113883.2.4.3.11.999.77.16076005.1",
              "value": "MBH_200_zonodig_MA"
            },
            "display": "relatie naar medicatieafspraak"
          }
        ],
        "dosage": [
          {
            "timing": {
              "repeat": {
                "frequency": 1,
                "period": 1,
                "periodUnit": "d"
              }
            },
            "asNeededCodeableConcept": {
              "coding": [
                {
                  "system": "https://referentiemodel.nhg.org/tabellen/nhg-tabel-25-gebruiksvoorschrift#aanvullend-numeriek",
                  "code": "1137",
                  "display": "Zo nodig"
                }
              ]
            },
            "route": {
              "coding": [
                {
                  "system": "urn:oid:2.16.840.1.113883.2.4.4.9",
                  "code": "9",
                  "display": "Oraal"
                }
              ]
            },
            "doseAndRate": [
              {
                "doseQuantity": {
                  "extension": [
                    {
                      "url": "http://hl7.org/fhir/StructureDefinition/iso21090-PQ-translation",
                      "valueQuantity": {
                        "value": 1,
                        "unit": "stuk",
                        "system": "urn:oid:2.16.840.1.113883.2.4.4.1.900.2",
                        "code": "245"
                      }
                    }
                  ],
                  "value": 1,
                  "unit": "stuk",
                  "system": "http://unitsofmeasure.org",
                  "code": "1"
                }
              }
            ]
          }
        ]
      },
      "request": {
        "method": "POST",
        "url": "MedicationStatement"
      }
    },
    {
      "fullUrl": "urn:uuid:c33f0690-6a95-11ec-0000-020000000000",
      "resource": {
        "resourceType": "MedicationStatement",
        "meta": {
          "profile": [
            "http://nictiz.nl/fhir/StructureDefinition/mp-MedicationUse2"
          ]
        },
        "extension": [
          {
            "url": "http://nictiz.nl/fhir/StructureDefinition/ext-RenderedDosageInstruction",
            "valueString": "Vanaf T, tot en met T + 7 dagen om 15:00 uur, elke dag om 09:00, 12:00 en 15:00 1 stuk - let op, tijden exact aanhouden"
          },
          {
            "url": "http://nictiz.nl/fhir/StructureDefinition/ext-MedicationUse2.Prescriber",
            "valueReference": {
              "reference": "urn:uuid:c33f04ce-6a95-11ec-0000-020000000000",
              "type": "PractitionerRole",
              "display": "Healthcare professional (role), Peter van Pulver, Huisartsen, niet nader gespecificeerd"
            }
          },
          {
            "url": "http://nictiz.nl/fhir/StructureDefinition/ext-AsAgreedIndicator",
            "valueBoolean": true
          },
          {
            "url": "http://nictiz.nl/fhir/StructureDefinition/ext-PharmaceuticalTreatment.Identifier",
            "valueIdentifier": {
              "system": "urn:oid:2.16.840.1.113883.2.4.3.11.999.77.1.1",
              "value": "MBH_200_tijdstippen_niet_flexibel"
            }
          },
          {
            "url": "http://nictiz.nl/fhir/StructureDefinition/ext-MedicationUse2.Author",
            "valueReference": {
              "reference": "urn:uuid:c33f04ce-6a95-11ec-0000-020000000000",
              "type": "PractitionerRole",
              "display": "Healthcare professional (role), Peter van Pulver, Huisartsen, niet nader gespecificeerd"
            }
          }
        ],
        "identifier": [
          {
            "system": "urn:oid:2.16.840.1.113883.2.4.3.11.999.77.6.1",
            "value": "MBH_200_tijdstippen_niet_flexibel_MGB"
          }
        ],
        "status": "active",
        "category": {
          "coding": [
            {
              "system": "http://snomed.info/sct",
              "code": "422979000",
              "display": "bevinding betreffende gedrag met betrekking tot medicatieregime"
            }
          ]
        },
        "medicationReference": {
          "reference": "urn:uuid:c33f079e-6a95-11ec-0000-020000000000",
          "type": "Medication",
          "display": "METFORMINE 500MG TABLET"
        },
        "subject": {
          "reference": "urn:uuid:c33f04b0-6a95-11ec-0000-020000000000",
          "type": "Patient",
          "display": "Patient, M. XXX_Rambaldo"
        },
        "effectivePeriod": {
          "start": "${DATE, T, D, +0}T00:00:00+02:00",
          "end": "${DATE, T, D, +7}T15:00:00+02:00"
        },
        "dateAsserted": "${DATE, T, D, +7}T16:00:00+02:00",
        "informationSource": {
          "reference": "urn:uuid:c33f04b0-6a95-11ec-0000-020000000000",
          "type": "Patient",
          "display": "Patient, M. XXX_Rambaldo"
        },
        "derivedFrom": [
          {
            "extension": [
              {
                "url": "http://nictiz.nl/fhir/StructureDefinition/ext-ResourceCategory",
                "valueCodeableConcept": {
                  "coding": [
                    {
                      "system": "http://snomed.info/sct",
                      "code": "33633005",
                      "display": "voorschrijven"
                    }
                  ]
                }
              }
            ],
            "identifier": {
              "system": "urn:oid:2.16.840.1.113883.2.4.3.11.999.77.16076005.1",
              "value": "MBH_200_tijdstippen_niet_flexibel_MA"
            },
            "display": "relatie naar medicatieafspraak"
          }
        ],
        "dosage": [
          {
            "timing": {
              "repeat": {
                "extension": [
                  {
                    "url": "http://hl7.org/fhir/StructureDefinition/timing-exact",
                    "valueBoolean": true
                  }
                ],
                "timeOfDay": [
                  "09:00:00",
                  "12:00:00",
                  "15:00:00"
                ]
              }
            },
            "doseAndRate": [
              {
                "doseQuantity": {
                  "extension": [
                    {
                      "url": "http://hl7.org/fhir/StructureDefinition/iso21090-PQ-translation",
                      "valueQuantity": {
                        "value": 1,
                        "unit": "stuk",
                        "system": "urn:oid:2.16.840.1.113883.2.4.4.1.900.2",
                        "code": "245"
                      }
                    }
                  ],
                  "value": 1,
                  "unit": "stuk",
                  "system": "http://unitsofmeasure.org",
                  "code": "1"
                }
              }
            ]
          }
        ]
      },
      "request": {
        "method": "POST",
        "url": "MedicationStatement"
      }
    },
    {
      "fullUrl": "urn:uuid:c33f06ae-6a95-11ec-0000-020000000000",
      "resource": {
        "resourceType": "MedicationStatement",
        "meta": {
          "profile": [
            "http://nictiz.nl/fhir/StructureDefinition/mp-MedicationUse2"
          ]
        },
        "extension": [
          {
            "url": "http://nictiz.nl/fhir/StructureDefinition/ext-RenderedDosageInstruction",
            "valueString": "Vanaf T, tot en met T + 8 dagen, toedieningssnelheid: maximaal 0.2 à 0.5 ml per uur, parenteraal"
          },
          {
            "url": "http://nictiz.nl/fhir/StructureDefinition/ext-MedicationUse2.Prescriber",
            "valueReference": {
              "reference": "urn:uuid:c33f04ce-6a95-11ec-0000-020000000000",
              "type": "PractitionerRole",
              "display": "Healthcare professional (role), Peter van Pulver, Huisartsen, niet nader gespecificeerd"
            }
          },
          {
            "url": "http://nictiz.nl/fhir/StructureDefinition/ext-AsAgreedIndicator",
            "valueBoolean": true
          },
          {
            "url": "http://nictiz.nl/fhir/StructureDefinition/ext-PharmaceuticalTreatment.Identifier",
            "valueIdentifier": {
              "system": "urn:oid:2.16.840.1.113883.2.4.3.11.999.77.1.1",
              "value": "MBH_200_toedieningssnelheid"
            }
          },
          {
            "url": "http://nictiz.nl/fhir/StructureDefinition/ext-MedicationUse2.Author",
            "valueReference": {
              "reference": "urn:uuid:c33f04ce-6a95-11ec-0000-020000000000",
              "type": "PractitionerRole",
              "display": "Healthcare professional (role), Peter van Pulver, Huisartsen, niet nader gespecificeerd"
            }
          }
        ],
        "identifier": [
          {
            "system": "urn:oid:2.16.840.1.113883.2.4.3.11.999.77.16076005.1",
            "value": "MBH_200_toedieningssnelheid_MGB"
          }
        ],
        "status": "active",
        "category": {
          "coding": [
            {
              "system": "http://snomed.info/sct",
              "code": "422979000",
              "display": "bevinding betreffende gedrag met betrekking tot medicatieregime"
            }
          ]
        },
        "medicationReference": {
          "reference": "urn:uuid:c33f0852-6a95-11ec-0000-020000000000",
          "type": "Medication",
          "display": "MORFINE INFVLST 5MG/ML CAS 100ML"
        },
        "subject": {
          "reference": "urn:uuid:c33f04b0-6a95-11ec-0000-020000000000",
          "type": "Patient",
          "display": "Patient, M. XXX_Rambaldo"
        },
        "effectivePeriod": {
          "start": "${DATE, T, D, +0}T00:00:00+02:00",
          "end": "${DATE, T, D, +8}T23:59:59+02:00"
        },
        "dateAsserted": "${DATE, T, D, +8}T23:59:59+02:00",
        "informationSource": {
          "reference": "urn:uuid:c33f04b0-6a95-11ec-0000-020000000000",
          "type": "Patient",
          "display": "Patient, M. XXX_Rambaldo"
        },
        "derivedFrom": [
          {
            "extension": [
              {
                "url": "http://nictiz.nl/fhir/StructureDefinition/ext-ResourceCategory",
                "valueCodeableConcept": {
                  "coding": [
                    {
                      "system": "http://snomed.info/sct",
                      "code": "33633005",
                      "display": "voorschrijven"
                    }
                  ]
                }
              }
            ],
            "identifier": {
              "system": "urn:oid:2.16.840.1.113883.2.4.3.11.999.77.16076005.1",
              "value": "MBH_200_toedieningssnelheid_MA"
            },
            "display": "relatie naar medicatieafspraak"
          }
        ],
        "dosage": [
          {
            "route": {
              "coding": [
                {
                  "system": "urn:oid:2.16.840.1.113883.2.4.4.9",
                  "code": "10",
                  "display": "parenteraal"
                }
              ]
            },
            "doseAndRate": [
              {
                "rateRange": {
                  "low": {
                    "value": 0.2,
                    "unit": "ml/h",
                    "system": "http://unitsofmeasure.org",
                    "code": "ml/h"
                  },
                  "high": {
                    "value": 0.5,
                    "unit": "ml/h",
                    "system": "http://unitsofmeasure.org",
                    "code": "ml/h"
                  }
                }
              }
            ]
          }
        ]
      },
      "request": {
        "method": "POST",
        "url": "MedicationStatement"
      }
    },
    {
      "fullUrl": "urn:uuid:c33f06cc-6a95-11ec-0000-020000000000",
      "resource": {
        "resourceType": "MedicationStatement",
        "meta": {
          "profile": [
            "http://nictiz.nl/fhir/StructureDefinition/mp-MedicationUse2"
          ]
        },
        "extension": [
          {
            "url": "http://nictiz.nl/fhir/StructureDefinition/ext-RenderedDosageInstruction",
            "valueString": "Vanaf T, tot en met T + 14 dagen om 12:00 uur, 1 maal per dag 1 stuk gedurende 16 uur, transdermaal"
          },
          {
            "url": "http://nictiz.nl/fhir/StructureDefinition/ext-MedicationUse2.Prescriber",
            "valueReference": {
              "reference": "urn:uuid:c33f04ce-6a95-11ec-0000-020000000000",
              "type": "PractitionerRole",
              "display": "Healthcare professional (role), Peter van Pulver, Huisartsen, niet nader gespecificeerd"
            }
          },
          {
            "url": "http://nictiz.nl/fhir/StructureDefinition/ext-PharmaceuticalTreatment.Identifier",
            "valueIdentifier": {
              "system": "urn:oid:2.16.840.1.113883.2.4.3.11.999.77.1.1",
              "value": "MBH_200_toedieningsduur"
            }
          },
          {
            "url": "http://nictiz.nl/fhir/StructureDefinition/ext-MedicationUse2.Author",
            "valueReference": {
              "reference": "urn:uuid:c33f04ce-6a95-11ec-0000-020000000000",
              "type": "PractitionerRole",
              "display": "Healthcare professional (role), Peter van Pulver, Huisartsen, niet nader gespecificeerd"
            }
          }
        ],
        "identifier": [
          {
            "system": "urn:oid:2.16.840.1.113883.2.4.3.11.999.77.16076005.1",
            "value": "MBH_200_toedieningsduur_MGB"
          }
        ],
        "status": "active",
        "category": {
          "coding": [
            {
              "system": "http://snomed.info/sct",
              "code": "422979000",
              "display": "bevinding betreffende gedrag met betrekking tot medicatieregime"
            }
          ]
        },
        "medicationReference": {
          "reference": "urn:uuid:c33f0870-6a95-11ec-0000-020000000000",
          "type": "Medication",
          "display": "NITROGLYCERINE PLEISTER 5MG/24UUR (DEPONIT T)"
        },
        "subject": {
          "reference": "urn:uuid:c33f04b0-6a95-11ec-0000-020000000000",
          "type": "Patient",
          "display": "Patient, M. XXX_Rambaldo"
        },
        "effectivePeriod": {
          "start": "${DATE, T, D, +0}T00:00:00+02:00",
          "end": "${DATE, T, D, +14}T12:00:00+02:00"
        },
        "dateAsserted": "${DATE, T, D, +14}T12:00:00+02:00",
        "informationSource": {
          "reference": "urn:uuid:c33f04b0-6a95-11ec-0000-020000000000",
          "type": "Patient",
          "display": "Patient, M. XXX_Rambaldo"
        },
        "derivedFrom": [
          {
            "extension": [
              {
                "url": "http://nictiz.nl/fhir/StructureDefinition/ext-ResourceCategory",
                "valueCodeableConcept": {
                  "coding": [
                    {
                      "system": "http://snomed.info/sct",
                      "code": "33633005",
                      "display": "voorschrijven"
                    }
                  ]
                }
              }
            ],
            "identifier": {
              "system": "urn:oid:2.16.840.1.113883.2.4.3.11.999.77.16076005.1",
              "value": "MBH_200_toedieningsduur_MA"
            },
            "display": "relatie naar medicatieafspraak"
          }
        ],
        "dosage": [
          {
            "timing": {
              "repeat": {
                "duration": 16,
                "durationUnit": "h",
                "frequency": 1,
                "period": 1,
                "periodUnit": "d"
              }
            },
            "route": {
              "coding": [
                {
                  "system": "urn:oid:2.16.840.1.113883.2.4.4.9",
                  "code": "58",
                  "display": "transdermaal"
                }
              ]
            },
            "doseAndRate": [
              {
                "doseQuantity": {
                  "extension": [
                    {
                      "url": "http://hl7.org/fhir/StructureDefinition/iso21090-PQ-translation",
                      "valueQuantity": {
                        "value": 1,
                        "unit": "stuk",
                        "system": "urn:oid:2.16.840.1.113883.2.4.4.1.900.2",
                        "code": "245"
                      }
                    }
                  ],
                  "value": 1,
                  "unit": "stuk",
                  "system": "http://unitsofmeasure.org",
                  "code": "1"
                }
              }
            ]
          }
        ]
      },
      "request": {
        "method": "POST",
        "url": "MedicationStatement"
      }
    },
    {
      "fullUrl": "urn:uuid:c33f04b0-6a95-11ec-0000-020000000000",
      "resource": {
        "resourceType": "Patient",
        "meta": {
          "profile": [
            "http://nictiz.nl/fhir/StructureDefinition/nl-core-Patient"
          ]
        },
        "identifier": [
          {
            "system": "http://fhir.nl/fhir/NamingSystem/bsn",
            "value": "999900936"
          }
        ],
        "name": [
          {
            "extension": [
              {
                "url": "http://hl7.org/fhir/StructureDefinition/humanname-assembly-order",
                "valueCode": "NL1"
              }
            ],
            "use": "official",
            "text": "M. XXX_Rambaldo",
            "family": "XXX_Rambaldo",
            "_family": {
              "extension": [
                {
                  "url": "http://hl7.org/fhir/StructureDefinition/humanname-own-name",
                  "valueString": "XXX_Rambaldo"
                }
              ]
            },
            "given": [
              "M."
            ],
            "_given": [
              {
                "extension": [
                  {
                    "url": "http://hl7.org/fhir/StructureDefinition/iso21090-EN-qualifier",
                    "valueCode": "IN"
                  }
                ]
              }
            ]
          }
        ],
        "gender": "female",
        "_gender": {
          "extension": [
            {
              "url": "http://nictiz.nl/fhir/StructureDefinition/ext-CodeSpecification",
              "valueCodeableConcept": {
                "coding": [
                  {
                    "system": "http://terminology.hl7.org/CodeSystem/v3-AdministrativeGender",
                    "code": "F",
                    "display": "Vrouw"
                  }
                ]
              }
            }
          ]
        },
        "birthDate": "1985-11-07"
      },
      "request": {
        "method": "POST",
        "url": "Patient"
      }
    },
    {
      "fullUrl": "urn:uuid:c33f04ce-6a95-11ec-0000-020000000000",
      "resource": {
        "resourceType": "PractitionerRole",
        "meta": {
          "profile": [
            "http://nictiz.nl/fhir/StructureDefinition/nl-core-HealthProfessional-PractitionerRole"
          ]
        },
        "practitioner": {
          "reference": "urn:uuid:c33f04ec-6a95-11ec-0000-020000000000",
          "type": "Practitioner",
          "display": "Healthcare professional (person), Peter van Pulver"
        },
        "organization": {
          "reference": "urn:uuid:c33f08ac-6a95-11ec-0000-020000000000",
          "type": "Organization",
          "display": "Healthcare provider (organization), Huisartsenpraktijk Pulver & Partners"
        },
        "specialty": [
          {
            "coding": [
              {
                "system": "urn:oid:2.16.840.1.113883.2.4.6.7",
                "version": "2020-10-23T00:00:00",
                "code": "0100",
                "display": "Huisartsen, niet nader gespecificeerd"
              }
            ]
          }
        ]
      },
      "request": {
        "method": "POST",
        "url": "PractitionerRole"
      }
    },
    {
      "fullUrl": "urn:uuid:c33f04ec-6a95-11ec-0000-020000000000",
      "resource": {
        "resourceType": "Practitioner",
        "meta": {
          "profile": [
            "http://nictiz.nl/fhir/StructureDefinition/nl-core-HealthProfessional-Practitioner"
          ]
        },
        "identifier": [
          {
            "system": "http://fhir.nl/fhir/NamingSystem/uzi-nr-pers",
            "value": "000001111"
          }
        ],
        "name": [
          {
            "use": "official",
            "text": "Peter van Pulver",
            "family": "van Pulver",
            "_family": {
              "extension": [
                {
                  "url": "http://hl7.org/fhir/StructureDefinition/humanname-own-prefix",
                  "valueString": "van"
                },
                {
                  "url": "http://hl7.org/fhir/StructureDefinition/humanname-own-name",
                  "valueString": "Pulver"
                }
              ]
            },
            "given": [
              "Peter"
            ],
            "_given": [
              {
                "extension": [
                  {
                    "url": "http://hl7.org/fhir/StructureDefinition/iso21090-EN-qualifier",
                    "valueCode": "BR"
                  }
                ]
              }
            ]
          }
        ]
      },
      "request": {
        "method": "POST",
        "url": "Practitioner"
      }
    },
    {
      "fullUrl": "urn:uuid:c33f08ac-6a95-11ec-0000-020000000000",
      "resource": {
        "resourceType": "Organization",
        "meta": {
          "profile": [
            "http://nictiz.nl/fhir/StructureDefinition/nl-core-HealthcareProvider-Organization"
          ]
        },
        "identifier": [
          {
            "system": "http://fhir.nl/fhir/NamingSystem/ura",
            "value": "00001111"
          }
        ],
        "name": "Huisartsenpraktijk Pulver & Partners",
        "address": [
          {
            "extension": [
              {
                "url": "http://nictiz.nl/fhir/StructureDefinition/ext-AddressInformation.AddressType",
                "valueCodeableConcept": {
                  "coding": [
                    {
                      "system": "http://terminology.hl7.org/CodeSystem/v3-AddressUse",
                      "code": "WP",
                      "display": "Werkadres"
                    }
                  ]
                }
              }
            ],
            "use": "work",
            "line": [
              "Dorpsstraat 1"
            ],
            "_line": [
              {
                "extension": [
                  {
                    "url": "http://hl7.org/fhir/StructureDefinition/iso21090-ADXP-streetName",
                    "valueString": "Dorpsstraat"
                  },
                  {
                    "url": "http://hl7.org/fhir/StructureDefinition/iso21090-ADXP-houseNumber",
                    "valueString": "1"
                  }
                ]
              }
            ],
            "city": "Ons Dorp",
            "postalCode": "1234AA"
          }
        ]
      },
      "request": {
        "method": "POST",
        "url": "Organization"
      }
    },
    {
      "fullUrl": "urn:uuid:c33f06ea-6a95-11ec-0000-020000000000",
      "resource": {
        "resourceType": "Medication",
        "meta": {
          "profile": [
            "http://nictiz.nl/fhir/StructureDefinition/nl-core-PharmaceuticalProduct"
          ]
        },
        "code": {
          "coding": [
            {
              "system": "urn:oid:2.16.840.1.113883.2.4.4.10",
              "code": "48291",
              "display": "MIZOLASTINE TABLET MGA  10MG",
              "userSelected": true
            },
            {
              "system": "urn:oid:2.16.840.1.113883.2.4.4.1",
              "code": "102164",
              "display": "MIZOLASTINE TABLET MGA  10MG"
            }
          ],
          "text": "MIZOLASTINE TABLET MGA  10MG"
        }
      },
      "request": {
        "method": "POST",
        "url": "Medication"
      }
    },
    {
      "fullUrl": "urn:uuid:c33f0708-6a95-11ec-0000-020000000000",
      "resource": {
        "resourceType": "Medication",
        "meta": {
          "profile": [
            "http://nictiz.nl/fhir/StructureDefinition/nl-core-PharmaceuticalProduct"
          ]
        },
        "code": {
          "coding": [
            {
              "system": "urn:oid:2.16.840.1.113883.2.4.4.10",
              "code": "68519",
              "display": "AMOXICILLINE DISPERTABLET 500MG",
              "userSelected": true
            },
            {
              "system": "urn:oid:2.16.840.1.113883.2.4.4.1",
              "code": "117080",
              "display": "AMOXICILLINE DISPERTABLET 500MG"
            }
          ],
          "text": "AMOXICILLINE DISPERTABLET 500MG"
        }
      },
      "request": {
        "method": "POST",
        "url": "Medication"
      }
    },
    {
      "fullUrl": "urn:uuid:c33f0726-6a95-11ec-0000-020000000000",
      "resource": {
        "resourceType": "Medication",
        "meta": {
          "profile": [
            "http://nictiz.nl/fhir/StructureDefinition/nl-core-PharmaceuticalProduct"
          ]
        },
        "code": {
          "coding": [
            {
              "system": "urn:oid:2.16.840.1.113883.2.4.4.10",
              "code": "67903",
              "display": "PARACETAMOL 500MG TABLET",
              "userSelected": true
            },
            {
              "system": "urn:oid:2.16.840.1.113883.2.4.4.1",
              "code": "2194",
              "display": "PARACETAMOL 500MG TABLET"
            }
          ],
          "text": "PARACETAMOL 500MG TABLET"
        }
      },
      "request": {
        "method": "POST",
        "url": "Medication"
      }
    },
    {
      "fullUrl": "urn:uuid:c33f0744-6a95-11ec-0000-020000000000",
      "resource": {
        "resourceType": "Medication",
        "meta": {
          "profile": [
            "http://nictiz.nl/fhir/StructureDefinition/nl-core-PharmaceuticalProduct"
          ]
        },
        "code": {
          "coding": [
            {
              "system": "urn:oid:2.16.840.1.113883.2.4.4.10",
              "code": "92789",
              "display": "Cetomacrogolcreme met vaseline 10%",
              "userSelected": true
            },
            {
              "system": "urn:oid:2.16.840.1.113883.2.4.4.1",
              "code": "133329",
              "display": "Cetomacrogolcreme met vaseline 10%"
            }
          ],
          "text": "Cetomacrogolcreme met vaseline 10%"
        }
      },
      "request": {
        "method": "POST",
        "url": "Medication"
      }
    },
    {
      "fullUrl": "urn:uuid:c33f0762-6a95-11ec-0000-020000000000",
      "resource": {
        "resourceType": "Medication",
        "meta": {
          "profile": [
            "http://nictiz.nl/fhir/StructureDefinition/nl-core-PharmaceuticalProduct"
          ]
        },
        "code": {
          "coding": [
            {
              "system": "urn:oid:2.16.840.1.113883.2.4.4.10",
              "code": "20850",
              "display": "NAPROXEN 500MG TABLET",
              "userSelected": true
            },
            {
              "system": "urn:oid:2.16.840.1.113883.2.4.4.1",
              "code": "51233",
              "display": "NAPROXEN 500MG TABLET"
            }
          ],
          "text": "NAPROXEN 500MG TABLET"
        }
      },
      "request": {
        "method": "POST",
        "url": "Medication"
      }
    },
    {
      "fullUrl": "urn:uuid:c33f0780-6a95-11ec-0000-020000000000",
      "resource": {
        "resourceType": "Medication",
        "meta": {
          "profile": [
            "http://nictiz.nl/fhir/StructureDefinition/nl-core-PharmaceuticalProduct"
          ]
        },
        "code": {
          "coding": [
            {
              "system": "urn:oid:2.16.840.1.113883.2.4.4.10",
              "code": "72664",
              "display": "WATERSTOFPEROXIDE CONC VOOR MONDSPOELING 30MG/ML",
              "userSelected": true
            },
            {
              "system": "urn:oid:2.16.840.1.113883.2.4.4.1",
              "code": "119903",
              "display": "WATERSTOFPEROXIDE CONC VOOR MONDSPOELING 30MG/ML"
            }
          ],
          "text": "WATERSTOFPEROXIDE CONC VOOR MONDSPOELING 30MG/ML"
        }
      },
      "request": {
        "method": "POST",
        "url": "Medication"
      }
    },
    {
      "fullUrl": "urn:uuid:c33f079e-6a95-11ec-0000-020000000000",
      "resource": {
        "resourceType": "Medication",
        "meta": {
          "profile": [
            "http://nictiz.nl/fhir/StructureDefinition/nl-core-PharmaceuticalProduct"
          ]
        },
        "code": {
          "coding": [
            {
              "system": "urn:oid:2.16.840.1.113883.2.4.4.10",
              "code": "1090",
              "display": "METFORMINE 500MG TABLET",
              "userSelected": true
            },
            {
              "system": "urn:oid:2.16.840.1.113883.2.4.4.1",
              "code": "3816",
              "display": "METFORMINE 500MG TABLET"
            }
          ],
          "text": "METFORMINE 500MG TABLET"
        }
      },
      "request": {
        "method": "POST",
        "url": "Medication"
      }
    },
    {
      "fullUrl": "urn:uuid:c33f07bc-6a95-11ec-0000-020000000000",
      "resource": {
        "resourceType": "Medication",
        "meta": {
          "profile": [
            "http://nictiz.nl/fhir/StructureDefinition/nl-core-PharmaceuticalProduct"
          ]
        },
        "code": {
          "coding": [
            {
              "system": "urn:oid:2.16.840.1.113883.2.4.4.10",
              "code": "55050",
              "display": "IMIQUIMOD 50MG/G CREME",
              "userSelected": true
            },
            {
              "system": "urn:oid:2.16.840.1.113883.2.4.4.1",
              "code": "109398",
              "display": "IMIQUIMOD 50MG/G CREME"
            }
          ],
          "text": "IMIQUIMOD 50MG/G CREME"
        }
      },
      "request": {
        "method": "POST",
        "url": "Medication"
      }
    },
    {
      "fullUrl": "urn:uuid:c33f07da-6a95-11ec-0000-020000000000",
      "resource": {
        "resourceType": "Medication",
        "meta": {
          "profile": [
            "http://nictiz.nl/fhir/StructureDefinition/nl-core-PharmaceuticalProduct"
          ]
        },
        "code": {
          "coding": [
            {
              "system": "urn:oid:2.16.840.1.113883.2.4.4.10",
              "code": "77038",
              "display": "EZETIMIB/SIMVASTATINE 10/20",
              "userSelected": true
            },
            {
              "system": "urn:oid:2.16.840.1.113883.2.4.4.1",
              "code": "123129",
              "display": "EZETIMIB/SIMVASTATINE 10/20"
            }
          ],
          "text": "EZETIMIB/SIMVASTATINE 10/20"
        }
      },
      "request": {
        "method": "POST",
        "url": "Medication"
      }
    },
    {
      "fullUrl": "urn:uuid:c33f07f8-6a95-11ec-0000-020000000000",
      "resource": {
        "resourceType": "Medication",
        "meta": {
          "profile": [
            "http://nictiz.nl/fhir/StructureDefinition/nl-core-PharmaceuticalProduct"
          ]
        },
        "code": {
          "coding": [
            {
              "system": "urn:oid:2.16.840.1.113883.2.4.4.10",
              "code": "16292",
              "display": "ETHINYLESTRADIOL/DESOGESTREL TABLET 30/150UG",
              "userSelected": true
            },
            {
              "system": "urn:oid:2.16.840.1.113883.2.4.4.1",
              "code": "39578",
              "display": "ETHINYLESTRADIOL/DESOGESTREL TABLET 30/150UG"
            }
          ],
          "text": "ETHINYLESTRADIOL/DESOGESTREL TABLET 30/150UG"
        }
      },
      "request": {
        "method": "POST",
        "url": "Medication"
      }
    },
    {
      "fullUrl": "urn:uuid:c33f0816-6a95-11ec-0000-020000000000",
      "resource": {
        "resourceType": "Medication",
        "meta": {
          "profile": [
            "http://nictiz.nl/fhir/StructureDefinition/nl-core-PharmaceuticalProduct"
          ]
        },
        "code": {
          "coding": [
            {
              "system": "urn:oid:2.16.840.1.113883.2.4.4.10",
              "code": "16705",
              "display": "Fusidinezuur creme 20mg/g",
              "userSelected": true
            },
            {
              "system": "urn:oid:2.16.840.1.113883.2.4.4.1",
              "code": "73466",
              "display": "Fusidinezuur creme 20mg/g"
            }
          ],
          "text": "Fusidinezuur creme 20mg/g"
        }
      },
      "request": {
        "method": "POST",
        "url": "Medication"
      }
    },
    {
      "fullUrl": "urn:uuid:c33f0834-6a95-11ec-0000-020000000000",
      "resource": {
        "resourceType": "Medication",
        "meta": {
          "profile": [
            "http://nictiz.nl/fhir/StructureDefinition/nl-core-PharmaceuticalProduct"
          ]
        },
        "code": {
          "coding": [
            {
              "system": "urn:oid:2.16.840.1.113883.2.4.4.10",
              "code": "42773",
              "display": "CODEINE TABLET 10MG (FOSFAAT)",
              "userSelected": true
            },
            {
              "system": "urn:oid:2.16.840.1.113883.2.4.4.1",
              "code": "23086",
              "display": "CODEINE TABLET 10MG (FOSFAAT)"
            }
          ],
          "text": "CODEINE TABLET 10MG (FOSFAAT)"
        }
      },
      "request": {
        "method": "POST",
        "url": "Medication"
      }
    },
    {
      "fullUrl": "urn:uuid:c33f0852-6a95-11ec-0000-020000000000",
      "resource": {
        "resourceType": "Medication",
        "meta": {
          "profile": [
            "http://nictiz.nl/fhir/StructureDefinition/nl-core-PharmaceuticalProduct"
          ]
        },
        "code": {
          "coding": [
            {
              "system": "urn:oid:2.16.840.1.113883.2.4.4.10",
              "code": "94692",
              "display": "MORFINE INFVLST 5MG/ML CAS 100ML",
              "userSelected": true
            },
            {
              "system": "urn:oid:2.16.840.1.113883.2.4.4.1",
              "code": "134538",
              "display": "MORFINE INFVLST 5MG/ML CAS 100ML"
            }
          ],
          "text": "MORFINE INFVLST 5MG/ML CAS 100ML"
        }
      },
      "request": {
        "method": "POST",
        "url": "Medication"
      }
    },
    {
      "fullUrl": "urn:uuid:c33f0870-6a95-11ec-0000-020000000000",
      "resource": {
        "resourceType": "Medication",
        "meta": {
          "profile": [
            "http://nictiz.nl/fhir/StructureDefinition/nl-core-PharmaceuticalProduct"
          ]
        },
        "code": {
          "coding": [
            {
              "system": "urn:oid:2.16.840.1.113883.2.4.4.10",
              "code": "44520",
              "display": "NITROGLYCERINE PLEISTER 5MG/24UUR (DEPONIT T)",
              "userSelected": true
            },
            {
              "system": "urn:oid:2.16.840.1.113883.2.4.4.1",
              "code": "98477",
              "display": "NITROGLYCERINE PLEISTER 5MG/24UUR (DEPONIT T)"
            }
          ],
          "text": "NITROGLYCERINE PLEISTER 5MG/24UUR (DEPONIT T)"
        }
      },
      "request": {
        "method": "POST",
        "url": "Medication"
      }
    },
    {
      "fullUrl": "urn:uuid:c33f088e-6a95-11ec-0000-020000000000",
      "resource": {
        "resourceType": "Medication",
        "meta": {
          "profile": [
            "http://nictiz.nl/fhir/StructureDefinition/nl-core-PharmaceuticalProduct"
          ]
        },
        "code": {
          "coding": [
            {
              "system": "urn:oid:2.16.840.1.113883.2.4.4.10",
              "code": "3956",
              "display": "ACETYLSALICYLZUUR 100MG TAB",
              "userSelected": true
            },
            {
              "system": "urn:oid:2.16.840.1.113883.2.4.4.1",
              "code": "12548",
              "display": "ACETYLSALICYLZUUR TABLET 100MG"
            }
          ],
          "text": "ACETYLSALICYLZUUR 100MG TAB"
        }
      },
      "request": {
        "method": "POST",
        "url": "Medication"
      }
    }
  ]
}