{
  "resourceType": "Bundle",
  "id": "mgsets-mp-smg-tst-MTD-Scenarioset11-v20",
  "type": "transaction",
  "entry": [ {
    "fullUrl": "urn:uuid:c33f20b2-6a95-11ec-0000-020000000000",
    "resource": {
      "resourceType": "MedicationAdministration",
      "meta": {
        "profile": [ "http://nictiz.nl/fhir/StructureDefinition/mp-MedicationAdministration2" ]
      },
      "text": {
        "status": "extensions",
        "div": "<div xmlns=\"http://www.w3.org/1999/xhtml\">\n            <table>\n              <caption>Medicatietoediening. Subject: Patient, M. XXX_Pherai. Id: MBH_200_wdsmtd1_MTD1 (urn:oid:2.16.840.1.113883.2.4.3.11.999.77.18629005.1), Categorie: <span title=\"toediening van medicatie (18629005 - SNOMED CT)\">toediening van medicatie</span>, Status: onbekend</caption>\n              <tbody>\n                <tr>\n                  <th>Medicatie</th>\n                  <td>ACENOCOUMAROL TABLET 1MG</td>\n                </tr>\n                <tr>\n                  <th>Datum/tijd</th>\n                  <td>${DATE, T, D, -20}T20:30:00+02:00</td>\n                </tr>\n                <tr>\n                  <th>Dosering</th>\n                  <td>\n                    <div>Toedieningsweg: <span title=\"ORAAL (9 - G-Standaard thesaurus subtabel 0007)\">ORAAL</span>\n                    </div>\n                    <div>Dosering: 1 stuk</div>\n                  </td>\n                </tr>\n              </tbody>\n            </table>\n          </div>"
      },
      "extension": [ {
        "url": "http://nictiz.nl/fhir/StructureDefinition/ext-MedicationAdministration2.AgreedDateTime",
        "valueDateTime": "${DATE, T, D, -20}T20:00:00+02:00"
      }, {
        "url": "http://nictiz.nl/fhir/StructureDefinition/ext-AsAgreedIndicator",
        "valueBoolean": true
      }, {
        "url": "http://nictiz.nl/fhir/StructureDefinition/ext-PharmaceuticalTreatment.Identifier",
        "valueIdentifier": {
          "system": "urn:oid:2.16.840.1.113883.2.4.3.11.999.77.1.1",
          "value": "MBH_200_wdsmtd1"
        }
      } ],
      "identifier": [ {
        "system": "urn:oid:2.16.840.1.113883.2.4.3.11.999.77.18629005.1",
        "value": "MBH_200_wdsmtd1_MTD1"
      } ],
      "status": "unknown",
      "category": {
        "coding": [ {
          "system": "http://snomed.info/sct",
          "code": "18629005",
          "display": "toediening van medicatie"
        } ]
      },
      "medicationReference": {
        "reference": "urn:uuid:c33f2148-6a95-11ec-0000-020000000000",
        "type": "Medication",
        "display": "ACENOCOUMAROL TABLET 1MG"
      },
      "subject": {
        "reference": "urn:uuid:c33f1fa4-6a95-11ec-0000-020000000000",
        "type": "Patient",
        "display": "Patient, M. XXX_Pherai"
      },
      "effectiveDateTime": "${DATE, T, D, -20}T20:30:00+02:00",
      "performer": [ {
        "actor": {
          "reference": "urn:uuid:c33f212a-6a95-11ec-0000-020000000000",
          "type": "RelatedPerson",
          "display": "Contact person, Toos de Bakker"
        }
      } ],
      "request": {
        "extension": [ {
          "url": "http://nictiz.nl/fhir/StructureDefinition/ext-ResourceCategory",
          "valueCodeableConcept": {
            "coding": [ {
              "system": "http://snomed.info/sct",
              "code": "395067002",
              "display": "optimaliseren van dosering van medicatie"
            } ]
          }
        } ],
        "type": "MedicationRequest",
        "identifier": {
          "system": "urn:oid:2.16.840.1.113883.2.4.3.11.999.77.632.1",
          "value": "MBH_200_wdsmtd1_WDS_opstartschema"
        },
        "display": "relatie naar wisselend doseerschema met identificatie: MBH_200_wdsmtd1_WDS_opstartschema || 2.16.840.1.113883.2.4.3.11.999.77.632.1"
      },
      "dosage": {
        "extension": [ {
          "url": "http://nictiz.nl/fhir/StructureDefinition/ext-MedicationAdministration2.AgreedAmount",
          "valueQuantity": {
            "extension": [ {
              "url": "http://hl7.org/fhir/StructureDefinition/iso21090-PQ-translation",
              "valueQuantity": {
                "value": 2,
                "unit": "stuk",
                "system": "urn:oid:2.16.840.1.113883.2.4.4.1.900.2",
                "code": "245"
              }
            } ],
            "value": 2,
            "unit": "stuk",
            "system": "http://unitsofmeasure.org",
            "code": "1"
          }
        } ],
        "route": {
          "coding": [ {
            "system": "urn:oid:2.16.840.1.113883.2.4.4.9",
            "code": "9",
            "display": "ORAAL"
          } ]
        },
        "dose": {
          "extension": [ {
            "url": "http://hl7.org/fhir/StructureDefinition/iso21090-PQ-translation",
            "valueQuantity": {
              "value": 1,
              "unit": "stuk",
              "system": "urn:oid:2.16.840.1.113883.2.4.4.1.900.2",
              "code": "245"
            }
          } ],
          "value": 1,
          "unit": "stuk",
          "system": "http://unitsofmeasure.org",
          "code": "1"
        }
      }
    },
    "request": {
      "method": "POST",
      "url": "MedicationAdministration"
    }
  }, {
    "fullUrl": "urn:uuid:c33f20d0-6a95-11ec-0000-020000000000",
    "resource": {
      "resourceType": "MedicationAdministration",
      "meta": {
        "profile": [ "http://nictiz.nl/fhir/StructureDefinition/mp-MedicationAdministration2" ]
      },
      "text": {
        "status": "extensions",
        "div": "<div xmlns=\"http://www.w3.org/1999/xhtml\">\n            <table>\n              <caption>Medicatietoediening. Subject: Patient, M. XXX_Pherai. Id: MBH_200_wdsmtd1_MTD2 (urn:oid:2.16.840.1.113883.2.4.3.11.999.77.18629005.1), Categorie: <span title=\"toediening van medicatie (18629005 - SNOMED CT)\">toediening van medicatie</span>, Status: onbekend</caption>\n              <tbody>\n                <tr>\n                  <th>Medicatie</th>\n                  <td>ACENOCOUMAROL TABLET 1MG</td>\n                </tr>\n                <tr>\n                  <th>Datum/tijd</th>\n                  <td>${DATE, T, D, -20}T20:00:00+02:00</td>\n                </tr>\n                <tr>\n                  <th>Dosering</th>\n                  <td>\n                    <div>Toedieningsweg: <span title=\"Oraal (9 - G-Standaard thesaurus subtabel 0007)\">Oraal</span>\n                    </div>\n                    <div>Dosering: 1 stuk</div>\n                  </td>\n                </tr>\n              </tbody>\n            </table>\n          </div>"
      },
      "extension": [ {
        "url": "http://nictiz.nl/fhir/StructureDefinition/ext-MedicationAdministration2.AgreedDateTime",
        "valueDateTime": "${DATE, T, D, -20}T20:00:00+02:00"
      }, {
        "url": "http://nictiz.nl/fhir/StructureDefinition/ext-MedicationAdministration2.ReasonForDeviation",
        "valueCodeableConcept": {
          "coding": [ {
            "system": "http://snomed.info/sct",
            "code": "406149000",
            "display": "toediening van medicatie geweigerd"
          } ]
        }
      }, {
        "url": "http://nictiz.nl/fhir/StructureDefinition/ext-AsAgreedIndicator",
        "valueBoolean": false
      }, {
        "url": "http://nictiz.nl/fhir/StructureDefinition/ext-PharmaceuticalTreatment.Identifier",
        "valueIdentifier": {
          "system": "urn:oid:2.16.840.1.113883.2.4.3.11.999.77.1.1",
          "value": "MBH_200_wdsmtd1"
        }
      } ],
      "identifier": [ {
        "system": "urn:oid:2.16.840.1.113883.2.4.3.11.999.77.18629005.1",
        "value": "MBH_200_wdsmtd1_MTD2"
      } ],
      "status": "unknown",
      "category": {
        "coding": [ {
          "system": "http://snomed.info/sct",
          "code": "18629005",
          "display": "toediening van medicatie"
        } ]
      },
      "medicationReference": {
        "reference": "urn:uuid:c33f2148-6a95-11ec-0000-020000000000",
        "type": "Medication",
        "display": "ACENOCOUMAROL TABLET 1MG"
      },
      "subject": {
        "reference": "urn:uuid:c33f1fa4-6a95-11ec-0000-020000000000",
        "type": "Patient",
        "display": "Patient, M. XXX_Pherai"
      },
      "effectiveDateTime": "${DATE, T, D, -20}T20:00:00+02:00",
      "performer": [ {
        "actor": {
          "reference": "urn:uuid:c33f1fcc-6a95-11ec-0000-020000000000",
          "type": "PractitionerRole",
          "display": "Healthcare professional (role), Jantien Toedien, Verpleegkundigen, niet nader gespecificeerd, Thuiszorg Om en Bij"
        }
      } ],
      "request": {
        "extension": [ {
          "url": "http://nictiz.nl/fhir/StructureDefinition/ext-ResourceCategory",
          "valueCodeableConcept": {
            "coding": [ {
              "system": "http://snomed.info/sct",
              "code": "395067002",
              "display": "optimaliseren van dosering van medicatie"
            } ]
          }
        } ],
        "type": "MedicationRequest",
        "identifier": {
          "system": "urn:oid:2.16.840.1.113883.2.4.3.11.999.77.632.1",
          "value": "MBH_200_wdsmtd1_WDS_opstartschema"
        },
        "display": "relatie naar wisselend doseerschema met identificatie: MBH_200_wdsmtd1_WDS_opstartschema || 2.16.840.1.113883.2.4.3.11.999.77.632.1"
      },
      "dosage": {
        "extension": [ {
          "url": "http://nictiz.nl/fhir/StructureDefinition/ext-MedicationAdministration2.AgreedAmount",
          "valueQuantity": {
            "extension": [ {
              "url": "http://hl7.org/fhir/StructureDefinition/iso21090-PQ-translation",
              "valueQuantity": {
                "value": 2,
                "unit": "stuk",
                "system": "urn:oid:2.16.840.1.113883.2.4.4.1.900.2",
                "code": "245"
              }
            } ],
            "value": 2,
            "unit": "stuk",
            "system": "http://unitsofmeasure.org",
            "code": "1"
          }
        } ],
        "route": {
          "coding": [ {
            "system": "urn:oid:2.16.840.1.113883.2.4.4.9",
            "code": "9",
            "display": "Oraal"
          } ]
        },
        "dose": {
          "extension": [ {
            "url": "http://hl7.org/fhir/StructureDefinition/iso21090-PQ-translation",
            "valueQuantity": {
              "value": 1,
              "unit": "stuk",
              "system": "urn:oid:2.16.840.1.113883.2.4.4.1.900.2",
              "code": "245"
            }
          } ],
          "value": 1,
          "unit": "stuk",
          "system": "http://unitsofmeasure.org",
          "code": "1"
        }
      }
    },
    "request": {
      "method": "POST",
      "url": "MedicationAdministration"
    }
  }, {
    "fullUrl": "urn:uuid:c33f20ee-6a95-11ec-0000-020000000000",
    "resource": {
      "resourceType": "MedicationAdministration",
      "meta": {
        "profile": [ "http://nictiz.nl/fhir/StructureDefinition/mp-MedicationAdministration2" ]
      },
      "text": {
        "status": "extensions",
        "div": "<div xmlns=\"http://www.w3.org/1999/xhtml\">\n            <table>\n              <caption>Medicatietoediening. Subject: Patient, M. XXX_Pherai. Id: MBH_200_wdsmtd1_MTD3 (urn:oid:2.16.840.1.113883.2.4.3.11.999.77.18629005.1), Categorie: <span title=\"toediening van medicatie (18629005 - SNOMED CT)\">toediening van medicatie</span>, Status: onbekend</caption>\n              <tfoot>\n                <tr>\n                  <td colspan=\"2\">Geprobeerd, maar niet gelukt met de tablet</td>\n                </tr>\n              </tfoot>\n              <tbody>\n                <tr>\n                  <th>Medicatie</th>\n                  <td>ACENOCOUMAROL TABLET 1MG</td>\n                </tr>\n                <tr>\n                  <th>Datum/tijd</th>\n                  <td>${DATE, T, D, -20}T20:00:00+02:00</td>\n                </tr>\n                <tr>\n                  <th>Dosering</th>\n                  <td>\n                    <div>Toedieningsweg: <span title=\"Oraal (9 - G-Standaard thesaurus subtabel 0007)\">Oraal</span>\n                    </div>\n                    <div>Dosering: 1 stuk</div>\n                  </td>\n                </tr>\n              </tbody>\n            </table>\n          </div>"
      },
      "extension": [ {
        "url": "http://nictiz.nl/fhir/StructureDefinition/ext-MedicationAdministration2.AgreedDateTime",
        "valueDateTime": "${DATE, T, D, -20}T20:00:00+02:00"
      }, {
        "url": "http://nictiz.nl/fhir/StructureDefinition/ext-MedicationAdministration2.ReasonForDeviation",
        "valueCodeableConcept": {
          "coding": [ {
            "system": "http://snomed.info/sct",
            "code": "408366001",
            "display": "niet in staat om medicatie te gebruiken"
          } ]
        }
      }, {
        "url": "http://nictiz.nl/fhir/StructureDefinition/ext-AsAgreedIndicator",
        "valueBoolean": false
      }, {
        "url": "http://nictiz.nl/fhir/StructureDefinition/ext-PharmaceuticalTreatment.Identifier",
        "valueIdentifier": {
          "system": "urn:oid:2.16.840.1.113883.2.4.3.11.999.77.1.1",
          "value": "MBH_200_wdsmtd1"
        }
      } ],
      "identifier": [ {
        "system": "urn:oid:2.16.840.1.113883.2.4.3.11.999.77.18629005.1",
        "value": "MBH_200_wdsmtd1_MTD3"
      } ],
      "status": "unknown",
      "category": {
        "coding": [ {
          "system": "http://snomed.info/sct",
          "code": "18629005",
          "display": "toediening van medicatie"
        } ]
      },
      "medicationReference": {
        "reference": "urn:uuid:c33f2148-6a95-11ec-0000-020000000000",
        "type": "Medication",
        "display": "ACENOCOUMAROL TABLET 1MG"
      },
      "subject": {
        "reference": "urn:uuid:c33f1fa4-6a95-11ec-0000-020000000000",
        "type": "Patient",
        "display": "Patient, M. XXX_Pherai"
      },
      "effectiveDateTime": "${DATE, T, D, -20}T20:00:00+02:00",
      "performer": [ {
        "actor": {
          "reference": "urn:uuid:c33f1fcc-6a95-11ec-0000-020000000000",
          "type": "PractitionerRole",
          "display": "Healthcare professional (role), Jantien Toedien, Verpleegkundigen, niet nader gespecificeerd, Thuiszorg Om en Bij"
        }
      } ],
      "request": {
        "extension": [ {
          "url": "http://nictiz.nl/fhir/StructureDefinition/ext-ResourceCategory",
          "valueCodeableConcept": {
            "coding": [ {
              "system": "http://snomed.info/sct",
              "code": "395067002",
              "display": "optimaliseren van dosering van medicatie"
            } ]
          }
        } ],
        "type": "MedicationRequest",
        "identifier": {
          "system": "urn:oid:2.16.840.1.113883.2.4.3.11.999.77.632.1",
          "value": "MBH_200_wdsmtd1_WDS_opstartschema"
        },
        "display": "relatie naar wisselend doseerschema met identificatie: MBH_200_wdsmtd1_WDS_opstartschema || 2.16.840.1.113883.2.4.3.11.999.77.632.1"
      },
      "note": [ {
        "text": "Geprobeerd, maar niet gelukt met de tablet"
      } ],
      "dosage": {
        "extension": [ {
          "url": "http://nictiz.nl/fhir/StructureDefinition/ext-MedicationAdministration2.AgreedAmount",
          "valueQuantity": {
            "extension": [ {
              "url": "http://hl7.org/fhir/StructureDefinition/iso21090-PQ-translation",
              "valueQuantity": {
                "value": 1,
                "unit": "stuk",
                "system": "urn:oid:2.16.840.1.113883.2.4.4.1.900.2",
                "code": "245"
              }
            } ],
            "value": 1,
            "unit": "stuk",
            "system": "http://unitsofmeasure.org",
            "code": "1"
          }
        } ],
        "route": {
          "coding": [ {
            "system": "urn:oid:2.16.840.1.113883.2.4.4.9",
            "code": "9",
            "display": "Oraal"
          } ]
        },
        "dose": {
          "extension": [ {
            "url": "http://hl7.org/fhir/StructureDefinition/iso21090-PQ-translation",
            "valueQuantity": {
              "value": 1,
              "unit": "stuk",
              "system": "urn:oid:2.16.840.1.113883.2.4.4.1.900.2",
              "code": "245"
            }
          } ],
          "value": 1,
          "unit": "stuk",
          "system": "http://unitsofmeasure.org",
          "code": "1"
        }
      }
    },
    "request": {
      "method": "POST",
      "url": "MedicationAdministration"
    }
  }, {
    "fullUrl": "urn:uuid:c33f210c-6a95-11ec-0000-020000000000",
    "resource": {
      "resourceType": "MedicationAdministration",
      "meta": {
        "profile": [ "http://nictiz.nl/fhir/StructureDefinition/mp-MedicationAdministration2" ]
      },
      "text": {
        "status": "extensions",
        "div": "<div xmlns=\"http://www.w3.org/1999/xhtml\">\n            <table>\n              <caption>Medicatietoediening. Subject: Patient, M. XXX_Pherai. Id: MBH_200_wdsmtd1_MTD4 (urn:oid:2.16.840.1.113883.2.4.3.11.999.77.18629005.1), Categorie: <span title=\"toediening van medicatie (18629005 - SNOMED CT)\">toediening van medicatie</span>, Status: onbekend</caption>\n              <tbody>\n                <tr>\n                  <th>Medicatie</th>\n                  <td>ACENOCOUMAROL TABLET 1MG</td>\n                </tr>\n                <tr>\n                  <th>Datum/tijd</th>\n                  <td>${DATE, T, D, -20}T20:05:00+02:00</td>\n                </tr>\n                <tr>\n                  <th>Dosering</th>\n                  <td>\n                    <div>Toedieningsweg: <span title=\"Oraal (9 - G-Standaard thesaurus subtabel 0007)\">Oraal</span>\n                    </div>\n                    <div>Dosering: 0 stuk</div>\n                  </td>\n                </tr>\n              </tbody>\n            </table>\n          </div>"
      },
      "extension": [ {
        "url": "http://nictiz.nl/fhir/StructureDefinition/ext-MedicationAdministration2.AgreedDateTime",
        "valueDateTime": "${DATE, T, D, -20}T20:00:00+02:00"
      }, {
        "url": "http://nictiz.nl/fhir/StructureDefinition/ext-MedicationAdministration2.ReasonForDeviation",
        "valueCodeableConcept": {
          "coding": [ {
            "system": "http://snomed.info/sct",
            "code": "153241000146104",
            "display": "zorgafnemer niet beschikbaar om medicatie in ontvangst te nemen"
          } ]
        }
      }, {
        "url": "http://nictiz.nl/fhir/StructureDefinition/ext-AsAgreedIndicator",
        "valueBoolean": false
      }, {
        "url": "http://nictiz.nl/fhir/StructureDefinition/ext-PharmaceuticalTreatment.Identifier",
        "valueIdentifier": {
          "system": "urn:oid:2.16.840.1.113883.2.4.3.11.999.77.1.1",
          "value": "MBH_200_wdsmtd1"
        }
      } ],
      "identifier": [ {
        "system": "urn:oid:2.16.840.1.113883.2.4.3.11.999.77.18629005.1",
        "value": "MBH_200_wdsmtd1_MTD4"
      } ],
      "status": "unknown",
      "category": {
        "coding": [ {
          "system": "http://snomed.info/sct",
          "code": "18629005",
          "display": "toediening van medicatie"
        } ]
      },
      "medicationReference": {
        "reference": "urn:uuid:c33f2148-6a95-11ec-0000-020000000000",
        "type": "Medication",
        "display": "ACENOCOUMAROL TABLET 1MG"
      },
      "subject": {
        "reference": "urn:uuid:c33f1fa4-6a95-11ec-0000-020000000000",
        "type": "Patient",
        "display": "Patient, M. XXX_Pherai"
      },
      "effectiveDateTime": "${DATE, T, D, -20}T20:05:00+02:00",
      "performer": [ {
        "actor": {
          "reference": "urn:uuid:c33f2026-6a95-11ec-0000-020000000000",
          "type": "PractitionerRole",
          "display": "Healthcare professional (role), Marleen van der Brand, Verpleegkundigen, niet nader gespecificeerd, Thuiszorg Om en Bij"
        }
      } ],
      "request": {
        "extension": [ {
          "url": "http://nictiz.nl/fhir/StructureDefinition/ext-ResourceCategory",
          "valueCodeableConcept": {
            "coding": [ {
              "system": "http://snomed.info/sct",
              "code": "395067002",
              "display": "optimaliseren van dosering van medicatie"
            } ]
          }
        } ],
        "type": "MedicationRequest",
        "identifier": {
          "system": "urn:oid:2.16.840.1.113883.2.4.3.11.999.77.632.1",
          "value": "MBH_200_wdsmtd1_WDS_opstartschema"
        },
        "display": "relatie naar wisselend doseerschema met identificatie: MBH_200_wdsmtd1_WDS_opstartschema || 2.16.840.1.113883.2.4.3.11.999.77.632.1"
      },
      "dosage": {
        "extension": [ {
          "url": "http://nictiz.nl/fhir/StructureDefinition/ext-MedicationAdministration2.AgreedAmount",
          "valueQuantity": {
            "extension": [ {
              "url": "http://hl7.org/fhir/StructureDefinition/iso21090-PQ-translation",
              "valueQuantity": {
                "value": 1,
                "unit": "stuk",
                "system": "urn:oid:2.16.840.1.113883.2.4.4.1.900.2",
                "code": "245"
              }
            } ],
            "value": 1,
            "unit": "stuk",
            "system": "http://unitsofmeasure.org",
            "code": "1"
          }
        } ],
        "route": {
          "coding": [ {
            "system": "urn:oid:2.16.840.1.113883.2.4.4.9",
            "code": "9",
            "display": "Oraal"
          } ]
        },
        "dose": {
          "extension": [ {
            "url": "http://hl7.org/fhir/StructureDefinition/iso21090-PQ-translation",
            "valueQuantity": {
              "value": 0,
              "unit": "stuk",
              "system": "urn:oid:2.16.840.1.113883.2.4.4.1.900.2",
              "code": "245"
            }
          } ],
          "value": 0,
          "unit": "stuk",
          "system": "http://unitsofmeasure.org",
          "code": "1"
        }
      }
    },
    "request": {
      "method": "POST",
      "url": "MedicationAdministration"
    }
  }, {
    "fullUrl": "urn:uuid:c33f1fa4-6a95-11ec-0000-020000000000",
    "resource": {
      "resourceType": "Patient",
      "meta": {
        "profile": [ "http://nictiz.nl/fhir/StructureDefinition/nl-core-Patient" ]
      },
      "text": {
        "status": "extensions",
        "div": "<div xmlns=\"http://www.w3.org/1999/xhtml\">\n            <div>Id 999900870 (BSN), M. XXX_Pherai, Vrouw, 1 november 1985</div>\n          </div>"
      },
      "identifier": [ {
        "system": "http://fhir.nl/fhir/NamingSystem/bsn",
        "value": "999900870"
      } ],
      "name": [ {
        "extension": [ {
          "url": "http://hl7.org/fhir/StructureDefinition/humanname-assembly-order",
          "valueCode": "NL1"
        } ],
        "use": "official",
        "text": "M. XXX_Pherai",
        "family": "XXX_Pherai",
        "_family": {
          "extension": [ {
            "url": "http://hl7.org/fhir/StructureDefinition/humanname-own-name",
            "valueString": "XXX_Pherai"
          } ]
        },
        "given": [ "M." ],
        "_given": [ {
          "extension": [ {
            "url": "http://hl7.org/fhir/StructureDefinition/iso21090-EN-qualifier",
            "valueCode": "IN"
          } ]
        } ]
      } ],
      "gender": "female",
      "_gender": {
        "extension": [ {
          "url": "http://nictiz.nl/fhir/StructureDefinition/ext-CodeSpecification",
          "valueCodeableConcept": {
            "coding": [ {
              "system": "http://terminology.hl7.org/CodeSystem/v3-AdministrativeGender",
              "code": "F",
              "display": "Vrouw"
            } ]
          }
        } ]
      },
      "birthDate": "1985-11-01"
    },
    "request": {
      "method": "POST",
      "url": "Patient"
    }
  }, {
    "fullUrl": "urn:uuid:c33f212a-6a95-11ec-0000-020000000000",
    "resource": {
      "resourceType": "RelatedPerson",
      "meta": {
        "profile": [ "http://nictiz.nl/fhir/StructureDefinition/nl-core-ContactPerson" ]
      },
      "text": {
        "status": "extensions",
        "div": "<div xmlns=\"http://www.w3.org/1999/xhtml\">\n            <div>Toos de Bakker</div>\n            <div>\n              <span title=\"Mantelzorger (100001 - 2.16.840.1.113883.2.4.3.11.60.40.4.23.1)\">Mantelzorger</span> van Patient, M. XXX_Pherai</div>\n          </div>"
      },
      "patient": {
        "reference": "urn:uuid:c33f1fa4-6a95-11ec-0000-020000000000",
        "type": "Patient",
        "display": "Patient, M. XXX_Pherai"
      },
      "relationship": [ {
        "coding": [ {
          "system": "urn:oid:2.16.840.1.113883.2.4.3.11.60.40.4.23.1",
          "code": "100001",
          "display": "Mantelzorger"
        } ]
      } ],
      "name": [ {
        "use": "official",
        "text": "Toos de Bakker",
        "family": "de Bakker",
        "_family": {
          "extension": [ {
            "url": "http://hl7.org/fhir/StructureDefinition/humanname-own-prefix",
            "valueString": "de"
          }, {
            "url": "http://hl7.org/fhir/StructureDefinition/humanname-own-name",
            "valueString": "Bakker"
          } ]
        },
        "given": [ "Toos" ],
        "_given": [ {
          "extension": [ {
            "url": "http://hl7.org/fhir/StructureDefinition/iso21090-EN-qualifier",
            "valueCode": "BR"
          } ]
        } ]
      } ]
    },
    "request": {
      "method": "POST",
      "url": "RelatedPerson"
    }
  }, {
    "fullUrl": "urn:uuid:c33f1fcc-6a95-11ec-0000-020000000000",
    "resource": {
      "resourceType": "PractitionerRole",
      "meta": {
        "profile": [ "http://nictiz.nl/fhir/StructureDefinition/nl-core-HealthProfessional-PractitionerRole" ]
      },
      "text": {
        "status": "extensions",
        "div": "<div xmlns=\"http://www.w3.org/1999/xhtml\">\n            <table>\n              <caption>Zorgverlenerrol. </caption>\n              <tbody>\n                <tr>\n                  <th>Zorgverlener</th>\n                  <td>\n                    <div>Healthcare professional (person), Jantien Toedien</div>\n                    <div>Healthcare provider (organization), Thuiszorg Om en Bij</div>\n                  </td>\n                </tr>\n                <tr>\n                  <th>Specialisme</th>\n                  <td>\n                    <span title=\"Verpleegkundigen, niet nader gespecificeerd (9100 - AGB-medisch specialisme)\">Verpleegkundigen, niet nader gespecificeerd</span>\n                  </td>\n                </tr>\n              </tbody>\n            </table>\n          </div>"
      },
      "practitioner": {
        "reference": "urn:uuid:c33f1ff4-6a95-11ec-0000-020000000000",
        "type": "Practitioner",
        "display": "Healthcare professional (person), Jantien Toedien"
      },
      "organization": {
        "reference": "urn:uuid:c33f2076-6a95-11ec-0000-020000000000",
        "type": "Organization",
        "display": "Healthcare provider (organization), Thuiszorg Om en Bij"
      },
      "specialty": [ {
        "coding": [ {
          "system": "urn:oid:2.16.840.1.113883.2.4.6.7",
          "version": "2020-10-23T00:00:00",
          "code": "9100",
          "display": "Verpleegkundigen, niet nader gespecificeerd"
        } ]
      } ]
    },
    "request": {
      "method": "POST",
      "url": "PractitionerRole"
    }
  }, {
    "fullUrl": "urn:uuid:c33f1ff4-6a95-11ec-0000-020000000000",
    "resource": {
      "resourceType": "Practitioner",
      "meta": {
        "profile": [ "http://nictiz.nl/fhir/StructureDefinition/nl-core-HealthProfessional-Practitioner" ]
      },
      "text": {
        "status": "extensions",
        "div": "<div xmlns=\"http://www.w3.org/1999/xhtml\">\n            <div>Id 222220000 (UZI-NR-PERS), Jantien Toedien</div>\n          </div>"
      },
      "identifier": [ {
        "system": "http://fhir.nl/fhir/NamingSystem/uzi-nr-pers",
        "value": "222220000"
      } ],
      "name": [ {
        "use": "official",
        "text": "Jantien Toedien",
        "family": "Toedien",
        "_family": {
          "extension": [ {
            "url": "http://hl7.org/fhir/StructureDefinition/humanname-own-name",
            "valueString": "Toedien"
          } ]
        },
        "given": [ "Jantien" ],
        "_given": [ {
          "extension": [ {
            "url": "http://hl7.org/fhir/StructureDefinition/iso21090-EN-qualifier",
            "valueCode": "BR"
          } ]
        } ]
      } ]
    },
    "request": {
      "method": "POST",
      "url": "Practitioner"
    }
  }, {
    "fullUrl": "urn:uuid:c33f2026-6a95-11ec-0000-020000000000",
    "resource": {
      "resourceType": "PractitionerRole",
      "meta": {
        "profile": [ "http://nictiz.nl/fhir/StructureDefinition/nl-core-HealthProfessional-PractitionerRole" ]
      },
      "text": {
        "status": "extensions",
        "div": "<div xmlns=\"http://www.w3.org/1999/xhtml\">\n            <table>\n              <caption>Zorgverlenerrol. </caption>\n              <tbody>\n                <tr>\n                  <th>Zorgverlener</th>\n                  <td>\n                    <div>Healthcare professional (person), Marleen van der Brand</div>\n                    <div>Healthcare provider (organization), Thuiszorg Om en Bij</div>\n                  </td>\n                </tr>\n                <tr>\n                  <th>Specialisme</th>\n                  <td>\n                    <span title=\"Verpleegkundigen, niet nader gespecificeerd (9100 - AGB-medisch specialisme)\">Verpleegkundigen, niet nader gespecificeerd</span>\n                  </td>\n                </tr>\n              </tbody>\n            </table>\n          </div>"
      },
      "practitioner": {
        "reference": "urn:uuid:c33f204e-6a95-11ec-0000-020000000000",
        "type": "Practitioner",
        "display": "Healthcare professional (person), Marleen van der Brand"
      },
      "organization": {
        "reference": "urn:uuid:c33f2076-6a95-11ec-0000-020000000000",
        "type": "Organization",
        "display": "Healthcare provider (organization), Thuiszorg Om en Bij"
      },
      "specialty": [ {
        "coding": [ {
          "system": "urn:oid:2.16.840.1.113883.2.4.6.7",
          "version": "2020-10-23T00:00:00",
          "code": "9100",
          "display": "Verpleegkundigen, niet nader gespecificeerd"
        } ]
      } ]
    },
    "request": {
      "method": "POST",
      "url": "PractitionerRole"
    }
  }, {
    "fullUrl": "urn:uuid:c33f204e-6a95-11ec-0000-020000000000",
    "resource": {
      "resourceType": "Practitioner",
      "meta": {
        "profile": [ "http://nictiz.nl/fhir/StructureDefinition/nl-core-HealthProfessional-Practitioner" ]
      },
      "text": {
        "status": "extensions",
        "div": "<div xmlns=\"http://www.w3.org/1999/xhtml\">\n            <div>Id 111110000 (UZI-NR-PERS), Marleen van der Brand</div>\n          </div>"
      },
      "identifier": [ {
        "system": "http://fhir.nl/fhir/NamingSystem/uzi-nr-pers",
        "value": "111110000"
      } ],
      "name": [ {
        "use": "official",
        "text": "Marleen van der Brand",
        "family": "van der Brand",
        "_family": {
          "extension": [ {
            "url": "http://hl7.org/fhir/StructureDefinition/humanname-own-prefix",
            "valueString": "van der"
          }, {
            "url": "http://hl7.org/fhir/StructureDefinition/humanname-own-name",
            "valueString": "Brand"
          } ]
        },
        "given": [ "Marleen" ],
        "_given": [ {
          "extension": [ {
            "url": "http://hl7.org/fhir/StructureDefinition/iso21090-EN-qualifier",
            "valueCode": "BR"
          } ]
        } ]
      } ]
    },
    "request": {
      "method": "POST",
      "url": "Practitioner"
    }
  }, {
    "fullUrl": "urn:uuid:c33f2076-6a95-11ec-0000-020000000000",
    "resource": {
      "resourceType": "Organization",
      "meta": {
        "profile": [ "http://nictiz.nl/fhir/StructureDefinition/nl-core-HealthcareProvider-Organization" ]
      },
      "text": {
        "status": "extensions",
        "div": "<div xmlns=\"http://www.w3.org/1999/xhtml\">\n            <table>\n              <caption>Organisatie. Id: 11110000 (URA)</caption>\n              <tbody>\n                <tr>\n                  <th>Naam</th>\n                  <td>Thuiszorg Om en Bij</td>\n                </tr>\n                <tr>\n                  <th>Type</th>\n                  <td>\n                    <span title=\"Thuiszorg (T2 - organization-type)\">Thuiszorg</span>\n                  </td>\n                </tr>\n                <tr>\n                  <th>Adres</th>\n                  <td>Voorstraat 1, 1223BA Ons Dorp</td>\n                </tr>\n              </tbody>\n            </table>\n          </div>"
      },
      "identifier": [ {
        "system": "http://fhir.nl/fhir/NamingSystem/ura",
        "value": "11110000"
      } ],
      "type": [ {
        "coding": [ {
          "system": "http://nictiz.nl/fhir/NamingSystem/organization-type",
          "code": "T2",
          "display": "Thuiszorg"
        } ]
      } ],
      "name": "Thuiszorg Om en Bij",
      "address": [ {
        "line": [ "Voorstraat 1" ],
        "_line": [ {
          "extension": [ {
            "url": "http://hl7.org/fhir/StructureDefinition/iso21090-ADXP-streetName",
            "valueString": "Voorstraat"
          }, {
            "url": "http://hl7.org/fhir/StructureDefinition/iso21090-ADXP-houseNumber",
            "valueString": "1"
          } ]
        } ],
        "city": "Ons Dorp",
        "postalCode": "1223BA"
      } ]
    },
    "request": {
      "method": "POST",
      "url": "Organization"
    }
  }, {
    "fullUrl": "urn:uuid:c33f2148-6a95-11ec-0000-020000000000",
    "resource": {
      "resourceType": "Medication",
      "meta": {
        "profile": [ "http://nictiz.nl/fhir/StructureDefinition/nl-core-PharmaceuticalProduct" ]
      },
      "text": {
        "status": "extensions",
        "div": "<div xmlns=\"http://www.w3.org/1999/xhtml\">\n            <table>\n              <tbody>\n                <tr>\n                  <th>Code</th>\n                  <td>\n                    <span title=\"ACENOCOUMAROL TABLET 1MG (7323 - G-Standaard PRK)\">ACENOCOUMAROL TABLET 1MG</span>\n                  </td>\n                </tr>\n              </tbody>\n            </table>\n          </div>"
      },
      "code": {
        "coding": [ {
          "system": "urn:oid:2.16.840.1.113883.2.4.4.10",
          "code": "7323",
          "display": "ACENOCOUMAROL TABLET 1MG",
          "userSelected": true
        }, {
          "system": "urn:oid:2.16.840.1.113883.2.4.4.1",
          "code": "20303",
          "display": "ACENOCOUMAROL TABLET 1MG"
        } ],
        "text": "ACENOCOUMAROL TABLET 1MG"
      }
    },
    "request": {
      "method": "POST",
      "url": "Medication"
    }
  } ]
}