{
  "resourceType": "Bundle",
  "id": "mp-vv-tst-patient-is-auteur-v20",
  "meta": {
    "profile": [
      "http://nictiz.nl/fhir/StructureDefinition/mp-ProposalDispenseRequest-Bundle"
    ]
  },
  "type": "transaction",
  "entry": [
    {
      "fullUrl": "urn:uuid:c33f0870-6a95-11ec-0000-020000000000",
      "resource": {
        "resourceType": "MedicationRequest",
        "meta": {
          "profile": [
            "http://nictiz.nl/fhir/StructureDefinition/mp-DispenseRequest"
          ],
          "tag": [
            {
              "system": "http://terminology.hl7.org/CodeSystem/common-tags",
              "code": "actionable"
            }
          ]
        },
        "extension": [
          {
            "url": "http://nictiz.nl/fhir/StructureDefinition/ext-Comment",
            "valueString": "Veel last van misselijkheid en ik heb onvoldoende voorraad"
          }
        ],
        "identifier": [
          {
            "system": "urn:oid:2.16.840.1.113883.2.4.3.11.999.77.52711000146108.2",
            "value": "MBH_200_Voorstelgegevens_patient_is_auteur_VVV"
          }
        ],
        "status": "active",
        "intent": "plan",
        "category": [
          {
            "coding": [
              {
                "system": "http://snomed.info/sct",
                "code": "52711000146108",
                "display": "verstrekkingsverzoek"
              }
            ]
          }
        ],
        "medicationReference": {
          "reference": "urn:uuid:c33f088e-6a95-11ec-0000-020000000000",
          "type": "Medication",
          "display": "METOCLOPRAMIDE TABLET 10MG"
        },
        "subject": {
          "reference": "urn:uuid:c33f0852-6a95-11ec-0000-020000000000",
          "type": "Patient",
          "display": "Patient, C. van de XXX_Brugge"
        },
        "authoredOn": "${DATE, T, D, +0}T13:24:00+02:00",
        "requester": {
          "reference": "urn:uuid:c33f0852-6a95-11ec-0000-020000000000",
          "type": "Patient",
          "display": "Patient, C. van de XXX_Brugge"
        },
        "performer": {
          "reference": "urn:uuid:c33f08ac-6a95-11ec-0000-020000000000",
          "type": "Organization",
          "display": "Healthcare provider (organization), Apotheek De Gulle Gaper"
        },
        "basedOn": [
          {
            "type": "MedicationRequest",
            "identifier": {
              "system": "urn:oid:2.16.840.1.113883.2.4.3.11.999.77.16076005.1",
              "value": "MBH_200_start_eind_MA"
            },
            "display": "relatie naar medicatieafspraak  met identificatie: MBH_200_start_eind_MA || 2.16.840.1.113883.2.4.3.11.999.77.16076005.1"
          }
        ],
        "dispenseRequest": {
          "quantity": {
            "extension": [
              {
                "url": "http://hl7.org/fhir/StructureDefinition/iso21090-PQ-translation",
                "valueQuantity": {
                  "value": 10,
                  "unit": "stuk",
                  "system": "urn:oid:2.16.840.1.113883.2.4.4.1.900.2",
                  "code": "245"
                }
              }
            ],
            "value": 10,
            "unit": "stuk",
            "system": "http://unitsofmeasure.org",
            "code": "1"
          }
        }
      },
      "request": {
        "method": "POST",
        "url": "MedicationRequest"
      }
    },
    {
      "fullUrl": "urn:uuid:c33f0852-6a95-11ec-0000-020000000000",
      "resource": {
        "resourceType": "Patient",
        "meta": {
          "profile": [
            "http://nictiz.nl/fhir/StructureDefinition/nl-core-Patient"
          ]
        },
        "identifier": [
          {
            "system": "http://fhir.nl/fhir/NamingSystem/bsn",
            "value": "999900419"
          }
        ],
        "name": [
          {
            "extension": [
              {
                "url": "http://hl7.org/fhir/StructureDefinition/humanname-assembly-order",
                "valueCode": "NL1"
              }
            ],
            "use": "official",
            "text": "C. van de XXX_Brugge",
            "family": "van de XXX_Brugge",
            "_family": {
              "extension": [
                {
                  "url": "http://hl7.org/fhir/StructureDefinition/humanname-own-prefix",
                  "valueString": "van de"
                },
                {
                  "url": "http://hl7.org/fhir/StructureDefinition/humanname-own-name",
                  "valueString": "XXX_Brugge"
                }
              ]
            },
            "given": [
              "C."
            ],
            "_given": [
              {
                "extension": [
                  {
                    "url": "http://hl7.org/fhir/StructureDefinition/iso21090-EN-qualifier",
                    "valueCode": "IN"
                  }
                ]
              }
            ]
          }
        ],
        "gender": "male",
        "_gender": {
          "extension": [
            {
              "url": "http://nictiz.nl/fhir/StructureDefinition/ext-CodeSpecification",
              "valueCodeableConcept": {
                "coding": [
                  {
                    "system": "http://terminology.hl7.org/CodeSystem/v3-AdministrativeGender",
                    "code": "M",
                    "display": "Man"
                  }
                ]
              }
            }
          ]
        },
        "birthDate": "1963-10-16"
      },
      "request": {
        "method": "POST",
        "url": "Patient"
      }
    },
    {
      "fullUrl": "urn:uuid:c33f08ac-6a95-11ec-0000-020000000000",
      "resource": {
        "resourceType": "Organization",
        "meta": {
          "profile": [
            "http://nictiz.nl/fhir/StructureDefinition/nl-core-HealthcareProvider-Organization"
          ]
        },
        "identifier": [
          {
            "system": "http://fhir.nl/fhir/NamingSystem/ura",
            "value": "01236578"
          }
        ],
        "name": "Apotheek De Gulle Gaper"
      },
      "request": {
        "method": "POST",
        "url": "Organization"
      }
    },
    {
      "fullUrl": "urn:uuid:c33f088e-6a95-11ec-0000-020000000000",
      "resource": {
        "resourceType": "Medication",
        "meta": {
          "profile": [
            "http://nictiz.nl/fhir/StructureDefinition/nl-core-PharmaceuticalProduct"
          ]
        },
        "code": {
          "coding": [
            {
              "system": "urn:oid:2.16.840.1.113883.2.4.4.10",
              "code": "6947",
              "display": "METOCLOPRAMIDE TABLET 10MG",
              "userSelected": true
            },
            {
              "system": "urn:oid:2.16.840.1.113883.2.4.4.1",
              "code": "19429",
              "display": "METOCLOPRAMIDE TABLET 10MG"
            }
          ],
          "text": "METOCLOPRAMIDE TABLET 10MG"
        }
      },
      "request": {
        "method": "POST",
        "url": "Medication"
      }
    }
  ]
}