{
  "resourceType": "Bundle",
  "id": "mp-vm-tst-andere-voorschrijver-v20",
  "meta": {
    "profile": [ "http://nictiz.nl/fhir/StructureDefinition/mp-ProposalMedicationAgreement-Bundle" ]
  },
  "type": "transaction",
  "entry": [ {
    "fullUrl": "urn:uuid:c33f038e-6a95-11ec-0000-020000000000",
    "resource": {
      "resourceType": "MedicationRequest",
      "meta": {
        "profile": [ "http://nictiz.nl/fhir/StructureDefinition/mp-MedicationAgreement" ],
        "tag": [ {
          "system": "http://terminology.hl7.org/CodeSystem/common-tags",
          "code": "actionable"
        } ]
      },
      "text": {
        "status": "extensions",
        "div": "<div xmlns=\"http://www.w3.org/1999/xhtml\">\n            <table>\n              <caption>MedicationRequest. Subject: Patient, C. XXX_Brugge. Id: MBH_200_chronisch_VMA (urn:oid:2.16.840.1.113883.2.4.3.11.999.77.16076005.2), Categorie: <span title=\"voorschrijven van geneesmiddel (33633005 - SNOMED CT)\">voorschrijven van geneesmiddel</span>, Status: actief<span style=\"display: block;\">Intentie: plan</span>\n                <span style=\"display: block;\">Aangevraagd door: Healthcare professional (role), Marcha van Partners, Huisartsen, niet nader gespecificeerd</span>\n              </caption>\n              <tbody>\n                <tr>\n                  <th>Medicatie</th>\n                  <td>LISINOPRIL 10MG TABLET</td>\n                </tr>\n                <tr>\n                  <th>Gemaakt</th>\n                  <td>${DATE, T, D, +0}T08:00:00+02:00</td>\n                </tr>\n                <tr>\n                  <th>Doseerinstructie</th>\n                  <td>\n                    <div>Timing: <div>eenmalig per 2 dagen</div>\n                    </div>\n                    <div>Toedieningsweg: <span title=\"Oraal (9 - G-Standaard thesaurus subtabel 0007)\">Oraal</span>\n                    </div>\n                    <div>Dosering: doseAndRate TODO</div>\n                  </td>\n                </tr>\n              </tbody>\n            </table>\n          </div>"
      },
      "extension": [ {
        "url": "http://nictiz.nl/fhir/StructureDefinition/ext-RenderedDosageInstruction",
        "valueString": "Vanaf T + 2 dagen, 1 maal per 2 dagen 1 stuk, Oraal"
      }, {
        "url": "http://nictiz.nl/fhir/StructureDefinition/ext-TimeInterval.Period",
        "valuePeriod": {
          "start": "${DATE, T, D, +0}T00:00:00+02:00"
        }
      }, {
        "url": "http://nictiz.nl/fhir/StructureDefinition/ext-PharmaceuticalTreatment.Identifier",
        "valueIdentifier": {
          "system": "urn:oid:2.16.840.1.113883.2.4.3.11.999.77.1.1",
          "value": "MBH_200_chronisch"
        }
      }, {
        "url": "http://nictiz.nl/fhir/StructureDefinition/ext-Comment",
        "valueString": "verlaging dosis gewenst"
      } ],
      "identifier": [ {
        "system": "urn:oid:2.16.840.1.113883.2.4.3.11.999.77.16076005.2",
        "value": "MBH_200_chronisch_VMA"
      } ],
      "status": "active",
      "intent": "plan",
      "category": [ {
        "coding": [ {
          "system": "http://snomed.info/sct",
          "code": "33633005",
          "display": "voorschrijven van geneesmiddel"
        } ]
      } ],
      "medicationReference": {
        "reference": "urn:uuid:c33f03ac-6a95-11ec-0000-020000000000",
        "type": "Medication",
        "display": "LISINOPRIL 10MG TABLET"
      },
      "subject": {
        "reference": "urn:uuid:c33f0334-6a95-11ec-0000-020000000000",
        "type": "Patient",
        "display": "Patient, C. XXX_Brugge"
      },
      "authoredOn": "${DATE, T, D, +0}T08:00:00+02:00",
      "requester": {
        "reference": "urn:uuid:c33f0352-6a95-11ec-0000-020000000000",
        "type": "PractitionerRole",
        "display": "Healthcare professional (role), Marcha van Partners, Huisartsen, niet nader gespecificeerd"
      },
      "dosageInstruction": [ {
        "timing": {
          "repeat": {
            "frequency": 1,
            "period": 2,
            "periodUnit": "d"
          }
        },
        "route": {
          "coding": [ {
            "system": "urn:oid:2.16.840.1.113883.2.4.4.9",
            "code": "9",
            "display": "Oraal"
          } ]
        },
        "doseAndRate": [ {
          "doseQuantity": {
            "extension": [ {
              "url": "http://hl7.org/fhir/StructureDefinition/iso21090-PQ-translation",
              "valueQuantity": {
                "value": 1,
                "unit": "stuk",
                "system": "urn:oid:2.16.840.1.113883.2.4.4.1.900.2",
                "code": "245"
              }
            } ],
            "value": 1,
            "unit": "stuk",
            "system": "http://unitsofmeasure.org",
            "code": "1"
          }
        } ]
      } ]
    },
    "request": {
      "method": "POST",
      "url": "MedicationRequest"
    }
  }, {
    "fullUrl": "urn:uuid:c33f0334-6a95-11ec-0000-020000000000",
    "resource": {
      "resourceType": "Patient",
      "meta": {
        "profile": [ "http://nictiz.nl/fhir/StructureDefinition/nl-core-Patient" ]
      },
      "text": {
        "status": "extensions",
        "div": "<div xmlns=\"http://www.w3.org/1999/xhtml\">\n            <div>Id 999900419 (BSN), C. XXX_Brugge, Man, 16 oktober 1963</div>\n          </div>"
      },
      "identifier": [ {
        "system": "http://fhir.nl/fhir/NamingSystem/bsn",
        "value": "999900419"
      } ],
      "name": [ {
        "extension": [ {
          "url": "http://hl7.org/fhir/StructureDefinition/humanname-assembly-order",
          "valueCode": "NL1"
        } ],
        "use": "official",
        "text": "C. XXX_Brugge",
        "family": "XXX_Brugge",
        "_family": {
          "extension": [ {
            "url": "http://hl7.org/fhir/StructureDefinition/humanname-own-name",
            "valueString": "XXX_Brugge"
          } ]
        },
        "given": [ "C." ],
        "_given": [ {
          "extension": [ {
            "url": "http://hl7.org/fhir/StructureDefinition/iso21090-EN-qualifier",
            "valueCode": "IN"
          } ]
        } ]
      } ],
      "gender": "male",
      "_gender": {
        "extension": [ {
          "url": "http://nictiz.nl/fhir/StructureDefinition/ext-CodeSpecification",
          "valueCodeableConcept": {
            "coding": [ {
              "system": "http://terminology.hl7.org/CodeSystem/v3-AdministrativeGender",
              "code": "M",
              "display": "Man"
            } ]
          }
        } ]
      },
      "birthDate": "1963-10-16"
    },
    "request": {
      "method": "POST",
      "url": "Patient"
    }
  }, {
    "fullUrl": "urn:uuid:c33f0352-6a95-11ec-0000-020000000000",
    "resource": {
      "resourceType": "PractitionerRole",
      "meta": {
        "profile": [ "http://nictiz.nl/fhir/StructureDefinition/nl-core-HealthProfessional-PractitionerRole" ]
      },
      "text": {
        "status": "extensions",
        "div": "<div xmlns=\"http://www.w3.org/1999/xhtml\">\n            <table>\n              <caption>Zorgverlenerrol. </caption>\n              <tbody>\n                <tr>\n                  <th>Zorgverlener</th>\n                  <td>\n                    <div>Healthcare professional (person), Marcha van Partners</div>\n                    <div>Healthcare provider (organization), Huisartsenpraktijk Itis</div>\n                  </td>\n                </tr>\n                <tr>\n                  <th>Specialisme</th>\n                  <td>\n                    <span title=\"Huisartsen, niet nader gespecificeerd (0100 - AGB-medisch specialisme)\">Huisartsen, niet nader gespecificeerd</span>\n                  </td>\n                </tr>\n              </tbody>\n            </table>\n          </div>"
      },
      "practitioner": {
        "reference": "urn:uuid:c33f0370-6a95-11ec-0000-020000000000",
        "type": "Practitioner",
        "display": "Healthcare professional (person), Marcha van Partners"
      },
      "organization": {
        "reference": "urn:uuid:c33f03ca-6a95-11ec-0000-020000000000",
        "type": "Organization",
        "display": "Healthcare provider (organization), Huisartsenpraktijk Itis"
      },
      "specialty": [ {
        "coding": [ {
          "system": "urn:oid:2.16.840.1.113883.2.4.6.7",
          "version": "2020-10-23T00:00:00",
          "code": "0100",
          "display": "Huisartsen, niet nader gespecificeerd"
        } ]
      } ]
    },
    "request": {
      "method": "POST",
      "url": "PractitionerRole"
    }
  }, {
    "fullUrl": "urn:uuid:c33f0370-6a95-11ec-0000-020000000000",
    "resource": {
      "resourceType": "Practitioner",
      "meta": {
        "profile": [ "http://nictiz.nl/fhir/StructureDefinition/nl-core-HealthProfessional-Practitioner" ]
      },
      "text": {
        "status": "extensions",
        "div": "<div xmlns=\"http://www.w3.org/1999/xhtml\">\n            <div>Id 000001115 (UZI-NR-PERS), Marcha van Partners</div>\n          </div>"
      },
      "identifier": [ {
        "system": "http://fhir.nl/fhir/NamingSystem/uzi-nr-pers",
        "value": "000001115"
      } ],
      "name": [ {
        "use": "official",
        "text": "Marcha van Partners",
        "family": "van Partners",
        "_family": {
          "extension": [ {
            "url": "http://hl7.org/fhir/StructureDefinition/humanname-own-prefix",
            "valueString": "van"
          }, {
            "url": "http://hl7.org/fhir/StructureDefinition/humanname-own-name",
            "valueString": "Partners"
          } ]
        },
        "given": [ "Marcha" ],
        "_given": [ {
          "extension": [ {
            "url": "http://hl7.org/fhir/StructureDefinition/iso21090-EN-qualifier",
            "valueCode": "BR"
          } ]
        } ]
      } ]
    },
    "request": {
      "method": "POST",
      "url": "Practitioner"
    }
  }, {
    "fullUrl": "urn:uuid:c33f03ca-6a95-11ec-0000-020000000000",
    "resource": {
      "resourceType": "Organization",
      "meta": {
        "profile": [ "http://nictiz.nl/fhir/StructureDefinition/nl-core-HealthcareProvider-Organization" ]
      },
      "text": {
        "status": "extensions",
        "div": "<div xmlns=\"http://www.w3.org/1999/xhtml\">\n            <table>\n              <caption>Organisatie. Id: 00005111 (URA)</caption>\n              <tbody>\n                <tr>\n                  <th>Naam</th>\n                  <td>Huisartsenpraktijk Itis</td>\n                </tr>\n              </tbody>\n            </table>\n          </div>"
      },
      "identifier": [ {
        "system": "http://fhir.nl/fhir/NamingSystem/ura",
        "value": "00005111"
      } ],
      "name": "Huisartsenpraktijk Itis"
    },
    "request": {
      "method": "POST",
      "url": "Organization"
    }
  }, {
    "fullUrl": "urn:uuid:c33f03ac-6a95-11ec-0000-020000000000",
    "resource": {
      "resourceType": "Medication",
      "meta": {
        "profile": [ "http://nictiz.nl/fhir/StructureDefinition/nl-core-PharmaceuticalProduct" ]
      },
      "text": {
        "status": "extensions",
        "div": "<div xmlns=\"http://www.w3.org/1999/xhtml\">\n            <table>\n              <tbody>\n                <tr>\n                  <th>Code</th>\n                  <td>\n                    <span title=\"LISINOPRIL 10MG TABLET (26638 - G-Standaard PRK)\">LISINOPRIL 10MG TABLET</span>\n                  </td>\n                </tr>\n              </tbody>\n            </table>\n          </div>"
      },
      "code": {
        "coding": [ {
          "system": "urn:oid:2.16.840.1.113883.2.4.4.10",
          "code": "26638",
          "display": "LISINOPRIL 10MG TABLET",
          "userSelected": true
        }, {
          "system": "urn:oid:2.16.840.1.113883.2.4.4.1",
          "code": "71587",
          "display": "LISINOPRIL 10MG TABLET"
        } ],
        "text": "LISINOPRIL 10MG TABLET"
      }
    },
    "request": {
      "method": "POST",
      "url": "Medication"
    }
  } ]
}