{
  "resourceType": "Bundle",
  "id": "mv-mp-vo-tst-4-2-b-nierfunctie-loinc-zonder-panel-v20",
  "meta": {
    "profile": [
      "http://nictiz.nl/fhir/StructureDefinition/mp-MedicationPrescription-Bundle"
    ]
  },
  "type": "transaction",
  "entry": [
    {
      "fullUrl": "urn:uuid:c33f1216-6a95-11ec-0000-020000000000",
      "resource": {
        "resourceType": "MedicationRequest",
        "meta": {
          "profile": [
            "http://nictiz.nl/fhir/StructureDefinition/mp-MedicationAgreement"
          ],
          "tag": [
            {
              "system": "http://terminology.hl7.org/CodeSystem/common-tags",
              "code": "actionable"
            }
          ]
        },
        "extension": [
          {
            "url": "http://nictiz.nl/fhir/StructureDefinition/ext-RenderedDosageInstruction",
            "valueString": "Vanaf T, 1 maal per dag 1 stuk, Oraal"
          },
          {
            "url": "http://nictiz.nl/fhir/StructureDefinition/ext-TimeInterval.Period",
            "valuePeriod": {
              "start": "${DATE, T, D, +0}T00:00:00+02:00"
            }
          },
          {
            "url": "http://nictiz.nl/fhir/StructureDefinition/ext-PharmaceuticalTreatment.Identifier",
            "valueIdentifier": {
              "system": "urn:oid:2.16.840.1.113883.2.4.3.11.999.77.1.1",
              "value": "MBH_200_Lengte_Gewicht"
            }
          }
        ],
        "identifier": [
          {
            "system": "urn:oid:2.16.840.1.113883.2.4.3.11.999.77.16076005.1",
            "value": "MBH_200_Lengte_Gewicht_MA_1"
          }
        ],
        "status": "active",
        "intent": "order",
        "category": [
          {
            "coding": [
              {
                "system": "http://snomed.info/sct",
                "code": "33633005",
                "display": "voorschrijven van geneesmiddel"
              }
            ]
          }
        ],
        "medicationReference": {
          "reference": "urn:uuid:c33f1252-6a95-11ec-0000-020000000000",
          "type": "Medication",
          "display": "ACETYLSALICYLZUUR TABLETMSR 100MG"
        },
        "subject": {
          "reference": "urn:uuid:c33f11bc-6a95-11ec-0000-020000000000",
          "type": "Patient",
          "display": "Patient, E. XXX_Doppen"
        },
        "authoredOn": "${DATE, T, D, +0}T07:05:00+02:00",
        "requester": {
          "reference": "urn:uuid:c33f11da-6a95-11ec-0000-020000000000",
          "type": "PractitionerRole",
          "display": "Healthcare professional (role), Peter van Pulver, Huisartsen, niet nader gespecificeerd"
        },
        "dosageInstruction": [
          {
            "timing": {
              "repeat": {
                "frequency": 1,
                "period": 1,
                "periodUnit": "d"
              }
            },
            "route": {
              "coding": [
                {
                  "system": "urn:oid:2.16.840.1.113883.2.4.4.9",
                  "code": "9",
                  "display": "Oraal"
                }
              ]
            },
            "doseAndRate": [
              {
                "doseQuantity": {
                  "extension": [
                    {
                      "url": "http://hl7.org/fhir/StructureDefinition/iso21090-PQ-translation",
                      "valueQuantity": {
                        "value": 1,
                        "unit": "stuk",
                        "system": "urn:oid:2.16.840.1.113883.2.4.4.1.900.2",
                        "code": "245"
                      }
                    }
                  ],
                  "value": 1,
                  "unit": "stuk",
                  "system": "http://unitsofmeasure.org",
                  "code": "1"
                }
              }
            ]
          }
        ]
      },
      "request": {
        "method": "POST",
        "url": "MedicationRequest"
      }
    },
    {
      "fullUrl": "urn:uuid:c33f1234-6a95-11ec-0000-020000000000",
      "resource": {
        "resourceType": "MedicationRequest",
        "meta": {
          "profile": [
            "http://nictiz.nl/fhir/StructureDefinition/mp-DispenseRequest"
          ],
          "tag": [
            {
              "system": "http://terminology.hl7.org/CodeSystem/common-tags",
              "code": "actionable"
            }
          ]
        },
        "extension": [
          {
            "url": "http://nictiz.nl/fhir/StructureDefinition/ext-PharmaceuticalTreatment.Identifier",
            "valueIdentifier": {
              "system": "urn:oid:2.16.840.1.113883.2.4.3.11.999.77.1.1",
              "value": "MBH_200_Lengte_Gewicht"
            }
          }
        ],
        "identifier": [
          {
            "system": "urn:oid:2.16.840.1.113883.2.4.3.11.999.77.52711000146108.1",
            "value": "MBH_200_Lengte_Gewicht_VV_1"
          }
        ],
        "status": "active",
        "intent": "order",
        "category": [
          {
            "coding": [
              {
                "system": "http://snomed.info/sct",
                "code": "52711000146108",
                "display": "verstrekkingsverzoek"
              }
            ]
          }
        ],
        "medicationReference": {
          "reference": "urn:uuid:c33f1252-6a95-11ec-0000-020000000000",
          "type": "Medication",
          "display": "ACETYLSALICYLZUUR TABLETMSR 100MG"
        },
        "subject": {
          "reference": "urn:uuid:c33f11bc-6a95-11ec-0000-020000000000",
          "type": "Patient",
          "display": "Patient, E. XXX_Doppen"
        },
        "authoredOn": "${DATE, T, D, +0}T07:05:00+02:00",
        "requester": {
          "reference": "urn:uuid:c33f11da-6a95-11ec-0000-020000000000",
          "type": "PractitionerRole",
          "display": "Healthcare professional (role), Peter van Pulver, Huisartsen, niet nader gespecificeerd"
        },
        "performer": {
          "reference": "urn:uuid:c33f12ac-6a95-11ec-0000-020000000000",
          "type": "Organization",
          "display": "Healthcare provider (organization), Apotheek De Gulle Gaper"
        },
        "basedOn": [
          {
            "type": "MedicationRequest",
            "identifier": {
              "system": "urn:oid:2.16.840.1.113883.2.4.3.11.999.77.16076005.1",
              "value": "MBH_200_Lengte_Gewicht_MA_1"
            },
            "display": "relatie naar medicatieafspraak  met identificatie: MBH_200_Lengte_Gewicht_MA_1 || 2.16.840.1.113883.2.4.3.11.999.77.16076005.1"
          }
        ],
        "dispenseRequest": {
          "quantity": {
            "extension": [
              {
                "url": "http://hl7.org/fhir/StructureDefinition/iso21090-PQ-translation",
                "valueQuantity": {
                  "value": 180,
                  "unit": "stuk",
                  "system": "urn:oid:2.16.840.1.113883.2.4.4.1.900.2",
                  "code": "245"
                }
              }
            ],
            "value": 180,
            "unit": "stuk",
            "system": "http://unitsofmeasure.org",
            "code": "1"
          }
        }
      },
      "request": {
        "method": "POST",
        "url": "MedicationRequest"
      }
    },
    {
      "fullUrl": "urn:uuid:6ac4c40e-5c3f-11ed-1667-020000000000",
      "resource": {
        "resourceType": "Observation",
        "meta": {
          "profile": [
            "http://nictiz.nl/fhir/StructureDefinition/nl-core-LaboratoryTestResult"
          ]
        },
        "extension": [
          {
            "url": "http://nictiz.nl/fhir/StructureDefinition/ext-CopyIndicator",
            "valueBoolean": true
          },
          {
            "url": "http://nictiz.nl/fhir/StructureDefinition/ext-EdifactReferenceNumber",
            "valueString": "111222"
          }
        ],
        "identifier": [
          {
            "system": "urn:oid:2.16.840.1.113883.2.4.3.11.999.25.4298.2",
            "value": "11111"
          }
        ],
        "status": "final",
        "category": [
          {
            "coding": [
              {
                "system": "http://terminology.hl7.org/CodeSystem/observation-category",
                "code": "laboratory",
                "display": "Laboratory"
              }
            ]
          }
        ],
        "code": {
          "coding": [
            {
              "system": "http://loinc.org",
              "code": "98979-8",
              "display": "Glomerulaire filtratiesnelheid/1,73 m2.voorspeld [filtratiesnelheid/oppervlakte] in serum of plasma of bloed d.m.v. formule gebaseerd op creatinine (CKD-EPI 2021)"
            }
          ]
        },
        "subject": {
          "reference": "urn:uuid:c33f11bc-6a95-11ec-0000-020000000000",
          "type": "Patient",
          "display": "Patient, E. XXX_Doppen"
        },
        "effectiveDateTime": "${DATE, T, D, -20}",
        "performer": [
          {
            "reference": "urn:uuid:6ac4c468-5c3f-11ed-1667-020000000000",
            "type": "Organization",
            "display": "Healthcare provider (organization), Klinisch chemisch Lab 't Proefje"
          }
        ],
        "valueQuantity": {
          "value": 97,
          "unit": "mL/min/{1.73_m2}",
          "system": "http://unitsofmeasure.org",
          "code": "mL/min/{1.73_m2}"
        },
        "interpretation": [
          {
            "text": "Waarde is goed."
          }
        ],
        "referenceRange": [
          {
            "low": {
              "value": 90,
              "unit": "mL/min/{1.73_m2}",
              "system": "http://unitsofmeasure.org",
              "code": "mL/min/{1.73_m2}"
            }
          }
        ]
      },
      "request": {
        "method": "POST",
        "url": "Observation"
      }
    },
    {
      "fullUrl": "urn:uuid:6ac4c42c-5c3f-11ed-1667-020000000000",
      "resource": {
        "resourceType": "Observation",
        "meta": {
          "profile": [
            "http://nictiz.nl/fhir/StructureDefinition/nl-core-LaboratoryTestResult"
          ]
        },
        "extension": [
          {
            "url": "http://nictiz.nl/fhir/StructureDefinition/ext-CopyIndicator",
            "valueBoolean": true
          },
          {
            "url": "http://nictiz.nl/fhir/StructureDefinition/ext-EdifactReferenceNumber",
            "valueString": "111222"
          }
        ],
        "identifier": [
          {
            "system": "urn:oid:2.16.840.1.113883.2.4.3.11.999.25.4298.2",
            "value": "22222"
          }
        ],
        "status": "final",
        "category": [
          {
            "coding": [
              {
                "system": "http://terminology.hl7.org/CodeSystem/observation-category",
                "code": "laboratory",
                "display": "Laboratory"
              }
            ]
          }
        ],
        "code": {
          "coding": [
            {
              "system": "http://loinc.org",
              "code": "45066-8",
              "display": "Creatinine [mol/volume] in urine"
            }
          ]
        },
        "subject": {
          "reference": "urn:uuid:c33f11bc-6a95-11ec-0000-020000000000",
          "type": "Patient",
          "display": "Patient, E. XXX_Doppen"
        },
        "effectiveDateTime": "2022-03-01T09:10:00+01:00",
        "performer": [
          {
            "reference": "urn:uuid:6ac4c468-5c3f-11ed-1667-020000000000",
            "type": "Organization",
            "display": "Healthcare provider (organization), Klinisch chemisch Lab 't Proefje"
          }
        ],
        "valueQuantity": {
          "value": 135,
          "unit": "umol/l",
          "system": "http://unitsofmeasure.org",
          "code": "umol/l"
        },
        "interpretation": [
          {
            "coding": [
              {
                "system": "http://snomed.info/sct",
                "code": "281302008",
                "display": "boven referentiebereik"
              },
              {
                "system": "http://terminology.hl7.org/CodeSystem/v3-ObservationInterpretation",
                "code": "H",
                "display": "High"
              }
            ]
          },
          {
            "text": "Creatinine iets hoger dan normaal."
          }
        ],
        "method": {
          "coding": [
            {
              "system": "http://snomed.info/sct",
              "code": "258026004",
              "display": "enzyme method"
            }
          ]
        },
        "referenceRange": [
          {
            "low": {
              "value": 62,
              "unit": "umol/l",
              "system": "http://unitsofmeasure.org",
              "code": "umol/l"
            },
            "high": {
              "value": 134,
              "unit": "umol/l",
              "system": "http://unitsofmeasure.org",
              "code": "umol/l"
            }
          }
        ]
      },
      "request": {
        "method": "POST",
        "url": "Observation"
      }
    },
    {
      "fullUrl": "urn:uuid:c33f11bc-6a95-11ec-0000-020000000000",
      "resource": {
        "resourceType": "Patient",
        "meta": {
          "profile": [
            "http://nictiz.nl/fhir/StructureDefinition/nl-core-Patient"
          ]
        },
        "identifier": [
          {
            "system": "http://fhir.nl/fhir/NamingSystem/bsn",
            "value": "999900511"
          }
        ],
        "name": [
          {
            "extension": [
              {
                "url": "http://hl7.org/fhir/StructureDefinition/humanname-assembly-order",
                "valueCode": "NL1"
              }
            ],
            "use": "official",
            "text": "E. XXX_Doppen",
            "family": "XXX_Doppen",
            "_family": {
              "extension": [
                {
                  "url": "http://hl7.org/fhir/StructureDefinition/humanname-own-name",
                  "valueString": "XXX_Doppen"
                }
              ]
            },
            "given": [
              "E."
            ],
            "_given": [
              {
                "extension": [
                  {
                    "url": "http://hl7.org/fhir/StructureDefinition/iso21090-EN-qualifier",
                    "valueCode": "IN"
                  }
                ]
              }
            ]
          }
        ],
        "gender": "male",
        "_gender": {
          "extension": [
            {
              "url": "http://nictiz.nl/fhir/StructureDefinition/ext-CodeSpecification",
              "valueCodeableConcept": {
                "coding": [
                  {
                    "system": "http://terminology.hl7.org/CodeSystem/v3-AdministrativeGender",
                    "code": "M",
                    "display": "Man"
                  }
                ]
              }
            }
          ]
        },
        "birthDate": "1963-10-24"
      },
      "request": {
        "method": "POST",
        "url": "Patient"
      }
    },
    {
      "fullUrl": "urn:uuid:c33f11da-6a95-11ec-0000-020000000000",
      "resource": {
        "resourceType": "PractitionerRole",
        "meta": {
          "profile": [
            "http://nictiz.nl/fhir/StructureDefinition/nl-core-HealthProfessional-PractitionerRole"
          ]
        },
        "practitioner": {
          "reference": "urn:uuid:c33f11f8-6a95-11ec-0000-020000000000",
          "type": "Practitioner",
          "display": "Healthcare professional (person), Peter van Pulver"
        },
        "organization": {
          "reference": "urn:uuid:c33f1270-6a95-11ec-0000-020000000000",
          "type": "Organization",
          "display": "Healthcare provider (organization), Huisartsenpraktijk Pulver & Partners"
        },
        "specialty": [
          {
            "coding": [
              {
                "system": "urn:oid:2.16.840.1.113883.2.4.6.7",
                "version": "2020-10-23T00:00:00",
                "code": "0100",
                "display": "Huisartsen, niet nader gespecificeerd"
              }
            ]
          }
        ],
        "telecom": [
          {
            "system": "phone",
            "value": "1645645000",
            "use": "work"
          }
        ]
      },
      "request": {
        "method": "POST",
        "url": "PractitionerRole"
      }
    },
    {
      "fullUrl": "urn:uuid:c33f11f8-6a95-11ec-0000-020000000000",
      "resource": {
        "resourceType": "Practitioner",
        "meta": {
          "profile": [
            "http://nictiz.nl/fhir/StructureDefinition/nl-core-HealthProfessional-Practitioner"
          ]
        },
        "identifier": [
          {
            "system": "http://fhir.nl/fhir/NamingSystem/uzi-nr-pers",
            "value": "000001111"
          }
        ],
        "name": [
          {
            "use": "official",
            "text": "Peter van Pulver",
            "family": "van Pulver",
            "_family": {
              "extension": [
                {
                  "url": "http://hl7.org/fhir/StructureDefinition/humanname-own-prefix",
                  "valueString": "van"
                },
                {
                  "url": "http://hl7.org/fhir/StructureDefinition/humanname-own-name",
                  "valueString": "Pulver"
                }
              ]
            },
            "given": [
              "Peter"
            ],
            "_given": [
              {
                "extension": [
                  {
                    "url": "http://hl7.org/fhir/StructureDefinition/iso21090-EN-qualifier",
                    "valueCode": "BR"
                  }
                ]
              }
            ]
          }
        ],
        "telecom": [
          {
            "system": "phone",
            "value": "1645645000",
            "use": "work"
          }
        ]
      },
      "request": {
        "method": "POST",
        "url": "Practitioner"
      }
    },
    {
      "fullUrl": "urn:uuid:c33f1270-6a95-11ec-0000-020000000000",
      "resource": {
        "resourceType": "Organization",
        "meta": {
          "profile": [
            "http://nictiz.nl/fhir/StructureDefinition/nl-core-HealthcareProvider-Organization"
          ]
        },
        "identifier": [
          {
            "system": "http://fhir.nl/fhir/NamingSystem/ura",
            "value": "00001111"
          }
        ],
        "name": "Huisartsenpraktijk Pulver & Partners",
        "address": [
          {
            "extension": [
              {
                "url": "http://nictiz.nl/fhir/StructureDefinition/ext-AddressInformation.AddressType",
                "valueCodeableConcept": {
                  "coding": [
                    {
                      "system": "http://terminology.hl7.org/CodeSystem/v3-AddressUse",
                      "code": "WP",
                      "display": "Werkadres"
                    }
                  ]
                }
              }
            ],
            "use": "work",
            "line": [
              "Dorpsstraat 1"
            ],
            "_line": [
              {
                "extension": [
                  {
                    "url": "http://hl7.org/fhir/StructureDefinition/iso21090-ADXP-streetName",
                    "valueString": "Dorpsstraat"
                  },
                  {
                    "url": "http://hl7.org/fhir/StructureDefinition/iso21090-ADXP-houseNumber",
                    "valueString": "1"
                  }
                ]
              }
            ],
            "city": "Ons Dorp",
            "postalCode": "1234AA"
          }
        ]
      },
      "request": {
        "method": "POST",
        "url": "Organization"
      }
    },
    {
      "fullUrl": "urn:uuid:c33f12ac-6a95-11ec-0000-020000000000",
      "resource": {
        "resourceType": "Organization",
        "meta": {
          "profile": [
            "http://nictiz.nl/fhir/StructureDefinition/nl-core-HealthcareProvider-Organization"
          ]
        },
        "identifier": [
          {
            "system": "http://fhir.nl/fhir/NamingSystem/ura",
            "value": "01236578"
          }
        ],
        "name": "Apotheek De Gulle Gaper"
      },
      "request": {
        "method": "POST",
        "url": "Organization"
      }
    },
    {
      "fullUrl": "urn:uuid:6ac4c468-5c3f-11ed-1667-020000000000",
      "resource": {
        "resourceType": "Organization",
        "meta": {
          "profile": [
            "http://nictiz.nl/fhir/StructureDefinition/nl-core-HealthcareProvider-Organization"
          ]
        },
        "identifier": [
          {
            "system": "http://fhir.nl/fhir/NamingSystem/ura",
            "value": "00003333"
          }
        ],
        "type": [
          {
            "coding": [
              {
                "system": "http://nictiz.nl/fhir/NamingSystem/organization-type",
                "version": "2022-07-07T00:00:00",
                "code": "L1",
                "display": "Laboratorium"
              }
            ]
          }
        ],
        "name": "Klinisch chemisch Lab 't Proefje",
        "telecom": [
          {
            "extension": [
              {
                "url": "http://nictiz.nl/fhir/StructureDefinition/ext-Comment",
                "valueString": "Bel met vragen"
              }
            ],
            "system": "phone",
            "value": "06-11122233",
            "use": "work"
          },
          {
            "system": "email",
            "value": "tproefje@lab.nl",
            "use": "work"
          }
        ],
        "address": [
          {
            "extension": [
              {
                "url": "http://nictiz.nl/fhir/StructureDefinition/ext-AddressInformation.AddressType",
                "valueCodeableConcept": {
                  "coding": [
                    {
                      "system": "http://terminology.hl7.org/CodeSystem/v3-AddressUse",
                      "code": "WP",
                      "display": "Werkadres"
                    }
                  ]
                }
              }
            ],
            "use": "work",
            "line": [
              "Hoofdstraat 23"
            ],
            "_line": [
              {
                "extension": [
                  {
                    "url": "http://hl7.org/fhir/StructureDefinition/iso21090-ADXP-streetName",
                    "valueString": "Hoofdstraat"
                  },
                  {
                    "url": "http://hl7.org/fhir/StructureDefinition/iso21090-ADXP-houseNumber",
                    "valueString": "23"
                  }
                ]
              }
            ],
            "city": "Zorgstad",
            "postalCode": "1234AA"
          }
        ]
      },
      "request": {
        "method": "POST",
        "url": "Organization"
      }
    },
    {
      "fullUrl": "urn:uuid:c33f1252-6a95-11ec-0000-020000000000",
      "resource": {
        "resourceType": "Medication",
        "meta": {
          "profile": [
            "http://nictiz.nl/fhir/StructureDefinition/nl-core-PharmaceuticalProduct"
          ]
        },
        "code": {
          "coding": [
            {
              "system": "urn:oid:2.16.840.1.113883.2.4.4.10",
              "code": "49484",
              "display": "ACETYLSALICYLZUUR TABLETMSR 100MG",
              "userSelected": true
            },
            {
              "system": "urn:oid:2.16.840.1.113883.2.4.4.1",
              "code": "103039",
              "display": "ACETYLSALICYLZUUR TABLETMSR 100MG"
            }
          ],
          "text": "ACETYLSALICYLZUUR TABLETMSR 100MG"
        }
      },
      "request": {
        "method": "POST",
        "url": "Medication"
      }
    }
  ]
}