<Bundle xmlns="http://hl7.org/fhir">
  <id value="mv-mp-vo-tst-13-1-contact-episode-v20"/>
  <meta>
    <profile value="http://nictiz.nl/fhir/StructureDefinition/mp-MedicationPrescription-Bundle"/>
  </meta>
  <type value="transaction"/>
  <entry>
    <fullUrl value="urn:uuid:c33f14f0-6a95-11ec-0000-020000000000"/>
    <resource>
      <MedicationRequest>
        <meta>
          <profile value="http://nictiz.nl/fhir/StructureDefinition/mp-MedicationAgreement"/>
          <tag>
            <system value="http://terminology.hl7.org/CodeSystem/common-tags"/>
            <code value="actionable"/>
          </tag>
        </meta>
        <text>
          <status value="extensions"/>
          <div xmlns="http://www.w3.org/1999/xhtml">
            <table>
              <caption>MedicationRequest. Subject: Patient, H. XXX_Hoek. Id: MBH_200_contactepisode_MA (urn:oid:2.16.840.1.113883.2.4.3.11.999.77.16076005.1), Categorie: <span title="voorschrijven van geneesmiddel (33633005 - SNOMED CT)">voorschrijven van geneesmiddel</span>, Status: actief<span style="display: block;">Intentie: aanvraag</span>
                <span style="display: block;">Aangevraagd door: Healthcare professional (role), Peter van Pulver, Huisartsen, niet nader gespecificeerd</span>
              </caption>
              <tbody>
                <tr>
                  <th>Medicatie</th>
                  <td>ACENOCOUMAROL TABLET 1MG</td>
                </tr>
                <tr>
                  <th>Gemaakt</th>
                  <td>${DATE, T, D, +0}T08:00:00+02:00</td>
                </tr>
                <tr>
                  <th>Doseerinstructie</th>
                  <td>
                    <div>Timing: <div>eenmalig per dag</div>
                    </div>
                    <div>Toedieningsweg: <span title="Oraal (9 - G-Standaard thesaurus subtabel 0007)">Oraal</span>
                    </div>
                    <div>Dosering: doseAndRate TODO</div>
                  </td>
                </tr>
              </tbody>
            </table>
          </div>
        </text>
        <extension url="http://nictiz.nl/fhir/StructureDefinition/ext-RenderedDosageInstruction">
          <valueString value="Vanaf T, tot en met T + 29 dagen, 1 maal per dag 2 stuks, Oraal"/>
        </extension>
        <extension url="http://nictiz.nl/fhir/StructureDefinition/ext-TimeInterval.Period">
          <valuePeriod>
            <start value="${DATE, T, D, +0}T00:00:00+02:00"/>
            <end value="${DATE, T, D, +29}T23:59:59+02:00"/>
          </valuePeriod>
        </extension>
        <extension url="http://nictiz.nl/fhir/StructureDefinition/ext-PharmaceuticalTreatment.Identifier">
          <valueIdentifier>
            <system value="urn:oid:2.16.840.1.113883.2.4.3.11.999.77.1.1"/>
            <value value="MBH_200_contactepisode"/>
          </valueIdentifier>
        </extension>
        <extension url="http://nictiz.nl/fhir/StructureDefinition/ext-Context-EpisodeOfCare">
          <valueReference>
            <type value="EpisodeOfCare"/>
            <identifier>
              <system value="urn:oid:2.16.840.1.113883.2.4.3.11.999.66.9200"/>
              <value value="MBH_200_contactepisode_EPISODE1"/>
            </identifier>
            <display value="relatie naar zorgepisode met identificatie: MBH_200_contactepisode_EPISODE1 || 2.16.840.1.113883.2.4.3.11.999.66.9200"/>
          </valueReference>
        </extension>
        <identifier>
          <system value="urn:oid:2.16.840.1.113883.2.4.3.11.999.77.16076005.1"/>
          <value value="MBH_200_contactepisode_MA"/>
        </identifier>
        <status value="active"/>
        <intent value="order"/>
        <category>
          <coding>
            <system value="http://snomed.info/sct"/>
            <code value="33633005"/>
            <display value="voorschrijven van geneesmiddel"/>
          </coding>
        </category>
        <medicationReference>
          <reference value="urn:uuid:c33f152c-6a95-11ec-0000-020000000000"/>
          <type value="Medication"/>
          <display value="ACENOCOUMAROL TABLET 1MG"/>
        </medicationReference>
        <subject>
          <reference value="urn:uuid:c33f1496-6a95-11ec-0000-020000000000"/>
          <type value="Patient"/>
          <display value="Patient, H. XXX_Hoek"/>
        </subject>
        <encounter>
          <type value="Encounter"/>
          <identifier>
            <system value="urn:oid:2.16.840.1.113883.2.4.3.11.999.66.2709"/>
            <value value="MBH_200_contactepisode_CONTACT1"/>
          </identifier>
          <display value="relatie naar contact met identificatie: MBH_200_contactepisode_CONTACT1 || 2.16.840.1.113883.2.4.3.11.999.66.2709"/>
        </encounter>
        <authoredOn value="${DATE, T, D, +0}T08:00:00+02:00"/>
        <requester>
          <reference value="urn:uuid:c33f14b4-6a95-11ec-0000-020000000000"/>
          <type value="PractitionerRole"/>
          <display value="Healthcare professional (role), Peter van Pulver, Huisartsen, niet nader gespecificeerd"/>
        </requester>
        <dosageInstruction>
          <timing>
            <repeat>
              <frequency value="1"/>
              <period value="1"/>
              <periodUnit value="d"/>
            </repeat>
          </timing>
          <route>
            <coding>
              <system value="urn:oid:2.16.840.1.113883.2.4.4.9"/>
              <code value="9"/>
              <display value="Oraal"/>
            </coding>
          </route>
          <doseAndRate>
            <doseQuantity>
              <extension url="http://hl7.org/fhir/StructureDefinition/iso21090-PQ-translation">
                <valueQuantity>
                  <value value="2"/>
                  <unit value="stuk"/>
                  <system value="urn:oid:2.16.840.1.113883.2.4.4.1.900.2"/>
                  <code value="245"/>
                </valueQuantity>
              </extension>
              <value value="2"/>
              <unit value="stuk"/>
              <system value="http://unitsofmeasure.org"/>
              <code value="1"/>
            </doseQuantity>
          </doseAndRate>
        </dosageInstruction>
      </MedicationRequest>
    </resource>
    <request>
      <method value="POST"/>
      <url value="MedicationRequest"/>
    </request>
  </entry>
  <entry>
    <fullUrl value="urn:uuid:c33f150e-6a95-11ec-0000-020000000000"/>
    <resource>
      <MedicationRequest>
        <meta>
          <profile value="http://nictiz.nl/fhir/StructureDefinition/mp-DispenseRequest"/>
          <tag>
            <system value="http://terminology.hl7.org/CodeSystem/common-tags"/>
            <code value="actionable"/>
          </tag>
        </meta>
        <text>
          <status value="extensions"/>
          <div xmlns="http://www.w3.org/1999/xhtml">
            <table>
              <caption>MedicationRequest. Subject: Patient, H. XXX_Hoek. Id: MBH_200_contactepisode_VV (urn:oid:2.16.840.1.113883.2.4.3.11.999.77.52711000146108.1), Categorie: <span title="verstrekkingsverzoek (52711000146108 - SNOMED CT)">verstrekkingsverzoek</span>, Status: actief<span style="display: block;">Intentie: aanvraag</span>
                <span style="display: block;">Aangevraagd door: Healthcare professional (role), Peter van Pulver, Huisartsen, niet nader gespecificeerd</span>
              </caption>
              <tbody>
                <tr>
                  <th>Gebaseerd op</th>
                  <td>relatie naar medicatieafspraak  met identificatie: MBH_200_contactepisode_MA || 2.16.840.1.113883.2.4.3.11.999.77.16076005.1 (Id: MBH_200_contactepisode_MA (urn:oid:2.16.840.1.113883.2.4.3.11.999.77.16076005.1))</td>
                </tr>
                <tr>
                  <th>Medicatie</th>
                  <td>ACENOCOUMAROL TABLET 1MG</td>
                </tr>
                <tr>
                  <th>Gemaakt</th>
                  <td>${DATE, T, D, +0}T08:00:00+02:00</td>
                </tr>
                <tr>
                  <th>Toedieningsverzoek</th>
                  <td>
                    <div>Hoeveelheid: </div>
                  </td>
                </tr>
              </tbody>
            </table>
          </div>
        </text>
        <extension url="http://nictiz.nl/fhir/StructureDefinition/ext-PharmaceuticalTreatment.Identifier">
          <valueIdentifier>
            <system value="urn:oid:2.16.840.1.113883.2.4.3.11.999.77.1.1"/>
            <value value="MBH_200_contactepisode"/>
          </valueIdentifier>
        </extension>
        <extension url="http://nictiz.nl/fhir/StructureDefinition/ext-Context-EpisodeOfCare">
          <valueReference>
            <type value="EpisodeOfCare"/>
            <identifier>
              <system value="urn:oid:2.16.840.1.113883.2.4.3.11.999.66.9200"/>
              <value value="MBH_200_contactepisode_EPISODE1"/>
            </identifier>
            <display value="relatie naar zorgepisode met identificatie: MBH_200_contactepisode_EPISODE1 || 2.16.840.1.113883.2.4.3.11.999.66.9200"/>
          </valueReference>
        </extension>
        <identifier>
          <system value="urn:oid:2.16.840.1.113883.2.4.3.11.999.77.52711000146108.1"/>
          <value value="MBH_200_contactepisode_VV"/>
        </identifier>
        <status value="active"/>
        <intent value="order"/>
        <category>
          <coding>
            <system value="http://snomed.info/sct"/>
            <code value="52711000146108"/>
            <display value="verstrekkingsverzoek"/>
          </coding>
        </category>
        <medicationReference>
          <reference value="urn:uuid:c33f152c-6a95-11ec-0000-020000000000"/>
          <type value="Medication"/>
          <display value="ACENOCOUMAROL TABLET 1MG"/>
        </medicationReference>
        <subject>
          <reference value="urn:uuid:c33f1496-6a95-11ec-0000-020000000000"/>
          <type value="Patient"/>
          <display value="Patient, H. XXX_Hoek"/>
        </subject>
        <encounter>
          <type value="Encounter"/>
          <identifier>
            <system value="urn:oid:2.16.840.1.113883.2.4.3.11.999.66.2709"/>
            <value value="MBH_200_contactepisode_CONTACT1"/>
          </identifier>
          <display value="relatie naar contact met identificatie: MBH_200_contactepisode_CONTACT1 || 2.16.840.1.113883.2.4.3.11.999.66.2709"/>
        </encounter>
        <authoredOn value="${DATE, T, D, +0}T08:00:00+02:00"/>
        <requester>
          <reference value="urn:uuid:c33f14b4-6a95-11ec-0000-020000000000"/>
          <type value="PractitionerRole"/>
          <display value="Healthcare professional (role), Peter van Pulver, Huisartsen, niet nader gespecificeerd"/>
        </requester>
        <performer>
          <reference value="urn:uuid:c33f1586-6a95-11ec-0000-020000000000"/>
          <type value="Organization"/>
          <display value="Healthcare provider (organization), Apotheek De Gulle Gaper"/>
        </performer>
        <basedOn>
          <type value="MedicationRequest"/>
          <identifier>
            <system value="urn:oid:2.16.840.1.113883.2.4.3.11.999.77.16076005.1"/>
            <value value="MBH_200_contactepisode_MA"/>
          </identifier>
          <display value="relatie naar medicatieafspraak  met identificatie: MBH_200_contactepisode_MA || 2.16.840.1.113883.2.4.3.11.999.77.16076005.1"/>
        </basedOn>
        <dispenseRequest>
          <quantity>
            <extension url="http://hl7.org/fhir/StructureDefinition/iso21090-PQ-translation">
              <valueQuantity>
                <value value="60"/>
                <unit value="stuk"/>
                <system value="urn:oid:2.16.840.1.113883.2.4.4.1.900.2"/>
                <code value="245"/>
              </valueQuantity>
            </extension>
            <value value="60"/>
            <unit value="stuk"/>
            <system value="http://unitsofmeasure.org"/>
            <code value="1"/>
          </quantity>
        </dispenseRequest>
      </MedicationRequest>
    </resource>
    <request>
      <method value="POST"/>
      <url value="MedicationRequest"/>
    </request>
  </entry>
  <entry>
    <fullUrl value="urn:uuid:c33f1496-6a95-11ec-0000-020000000000"/>
    <resource>
      <Patient>
        <meta>
          <profile value="http://nictiz.nl/fhir/StructureDefinition/nl-core-Patient"/>
        </meta>
        <text>
          <status value="extensions"/>
          <div xmlns="http://www.w3.org/1999/xhtml">
            <div>Id 999900638 (BSN), H. XXX_Hoek, Man, 5 november 1963</div>
          </div>
        </text>
        <identifier>
          <system value="http://fhir.nl/fhir/NamingSystem/bsn"/>
          <value value="999900638"/>
        </identifier>
        <name>
          <extension url="http://hl7.org/fhir/StructureDefinition/humanname-assembly-order">
            <valueCode value="NL1"/>
          </extension>
          <use value="official"/>
          <text value="H. XXX_Hoek"/>
          <family value="XXX_Hoek">
            <extension url="http://hl7.org/fhir/StructureDefinition/humanname-own-name">
              <valueString value="XXX_Hoek"/>
            </extension>
          </family>
          <given value="H.">
            <extension url="http://hl7.org/fhir/StructureDefinition/iso21090-EN-qualifier">
              <valueCode value="IN"/>
            </extension>
          </given>
        </name>
        <gender value="male">
          <extension url="http://nictiz.nl/fhir/StructureDefinition/ext-CodeSpecification">
            <valueCodeableConcept>
              <coding>
                <system value="http://terminology.hl7.org/CodeSystem/v3-AdministrativeGender"/>
                <code value="M"/>
                <display value="Man"/>
              </coding>
            </valueCodeableConcept>
          </extension>
        </gender>
        <birthDate value="1963-11-05"/>
      </Patient>
    </resource>
    <request>
      <method value="POST"/>
      <url value="Patient"/>
    </request>
  </entry>
  <entry>
    <fullUrl value="urn:uuid:c33f14b4-6a95-11ec-0000-020000000000"/>
    <resource>
      <PractitionerRole>
        <meta>
          <profile value="http://nictiz.nl/fhir/StructureDefinition/nl-core-HealthProfessional-PractitionerRole"/>
        </meta>
        <text>
          <status value="extensions"/>
          <div xmlns="http://www.w3.org/1999/xhtml">
            <table>
              <caption>Zorgverlenerrol. </caption>
              <tbody>
                <tr>
                  <th>Zorgverlener</th>
                  <td>
                    <div>Healthcare professional (person), Peter van Pulver</div>
                    <div>Healthcare provider (organization), Huisartsenpraktijk Pulver &amp; Partners</div>
                  </td>
                </tr>
                <tr>
                  <th>Specialisme</th>
                  <td>
                    <span title="Huisartsen, niet nader gespecificeerd (0100 - AGB-medisch specialisme)">Huisartsen, niet nader gespecificeerd</span>
                  </td>
                </tr>
                <tr>
                  <th>Contactgegevens</th>
                  <td>
                    <a href="tel:1645645000">1645645000</a> (Tel Werk)</td>
                </tr>
              </tbody>
            </table>
          </div>
        </text>
        <practitioner>
          <reference value="urn:uuid:c33f14d2-6a95-11ec-0000-020000000000"/>
          <type value="Practitioner"/>
          <display value="Healthcare professional (person), Peter van Pulver"/>
        </practitioner>
        <organization>
          <reference value="urn:uuid:c33f154a-6a95-11ec-0000-020000000000"/>
          <type value="Organization"/>
          <display value="Healthcare provider (organization), Huisartsenpraktijk Pulver &amp; Partners"/>
        </organization>
        <specialty>
          <coding>
            <system value="urn:oid:2.16.840.1.113883.2.4.6.7"/>
            <version value="2020-10-23T00:00:00"/>
            <code value="0100"/>
            <display value="Huisartsen, niet nader gespecificeerd"/>
          </coding>
        </specialty>
        <telecom>
          <system value="phone"/>
          <value value="1645645000"/>
          <use value="work"/>
        </telecom>
      </PractitionerRole>
    </resource>
    <request>
      <method value="POST"/>
      <url value="PractitionerRole"/>
    </request>
  </entry>
  <entry>
    <fullUrl value="urn:uuid:c33f14d2-6a95-11ec-0000-020000000000"/>
    <resource>
      <Practitioner>
        <meta>
          <profile value="http://nictiz.nl/fhir/StructureDefinition/nl-core-HealthProfessional-Practitioner"/>
        </meta>
        <text>
          <status value="extensions"/>
          <div xmlns="http://www.w3.org/1999/xhtml">
            <div>Id 000001111 (UZI-NR-PERS), Peter van Pulver</div>
            <div>
              <a href="tel:1645645000">1645645000</a> (Tel Werk)</div>
          </div>
        </text>
        <identifier>
          <system value="http://fhir.nl/fhir/NamingSystem/uzi-nr-pers"/>
          <value value="000001111"/>
        </identifier>
        <name>
          <use value="official"/>
          <text value="Peter van Pulver"/>
          <family value="van Pulver">
            <extension url="http://hl7.org/fhir/StructureDefinition/humanname-own-prefix">
              <valueString value="van"/>
            </extension>
            <extension url="http://hl7.org/fhir/StructureDefinition/humanname-own-name">
              <valueString value="Pulver"/>
            </extension>
          </family>
          <given value="Peter">
            <extension url="http://hl7.org/fhir/StructureDefinition/iso21090-EN-qualifier">
              <valueCode value="BR"/>
            </extension>
          </given>
        </name>
        <telecom>
          <system value="phone"/>
          <value value="1645645000"/>
          <use value="work"/>
        </telecom>
      </Practitioner>
    </resource>
    <request>
      <method value="POST"/>
      <url value="Practitioner"/>
    </request>
  </entry>
  <entry>
    <fullUrl value="urn:uuid:c33f154a-6a95-11ec-0000-020000000000"/>
    <resource>
      <Organization>
        <meta>
          <profile value="http://nictiz.nl/fhir/StructureDefinition/nl-core-HealthcareProvider-Organization"/>
        </meta>
        <text>
          <status value="extensions"/>
          <div xmlns="http://www.w3.org/1999/xhtml">
            <table>
              <caption>Organisatie. Id: 00001111 (URA)</caption>
              <tbody>
                <tr>
                  <th>Naam</th>
                  <td>Huisartsenpraktijk Pulver &amp; Partners</td>
                </tr>
                <tr>
                  <th>Adres</th>
                  <td>Dorpsstraat 1, 1234AA Ons Dorp (Werk)</td>
                </tr>
              </tbody>
            </table>
          </div>
        </text>
        <identifier>
          <system value="http://fhir.nl/fhir/NamingSystem/ura"/>
          <value value="00001111"/>
        </identifier>
        <name value="Huisartsenpraktijk Pulver &amp; Partners"/>
        <address>
          <extension url="http://nictiz.nl/fhir/StructureDefinition/ext-AddressInformation.AddressType">
            <valueCodeableConcept>
              <coding>
                <system value="http://terminology.hl7.org/CodeSystem/v3-AddressUse"/>
                <code value="WP"/>
                <display value="Werkadres"/>
              </coding>
            </valueCodeableConcept>
          </extension>
          <use value="work"/>
          <line value="Dorpsstraat 1">
            <extension url="http://hl7.org/fhir/StructureDefinition/iso21090-ADXP-streetName">
              <valueString value="Dorpsstraat"/>
            </extension>
            <extension url="http://hl7.org/fhir/StructureDefinition/iso21090-ADXP-houseNumber">
              <valueString value="1"/>
            </extension>
          </line>
          <city value="Ons Dorp"/>
          <postalCode value="1234AA"/>
        </address>
      </Organization>
    </resource>
    <request>
      <method value="POST"/>
      <url value="Organization"/>
    </request>
  </entry>
  <entry>
    <fullUrl value="urn:uuid:c33f1586-6a95-11ec-0000-020000000000"/>
    <resource>
      <Organization>
        <meta>
          <profile value="http://nictiz.nl/fhir/StructureDefinition/nl-core-HealthcareProvider-Organization"/>
        </meta>
        <text>
          <status value="extensions"/>
          <div xmlns="http://www.w3.org/1999/xhtml">
            <table>
              <caption>Organisatie. Id: 01236578 (URA)</caption>
              <tbody>
                <tr>
                  <th>Naam</th>
                  <td>Apotheek De Gulle Gaper</td>
                </tr>
              </tbody>
            </table>
          </div>
        </text>
        <identifier>
          <system value="http://fhir.nl/fhir/NamingSystem/ura"/>
          <value value="01236578"/>
        </identifier>
        <name value="Apotheek De Gulle Gaper"/>
      </Organization>
    </resource>
    <request>
      <method value="POST"/>
      <url value="Organization"/>
    </request>
  </entry>
  <entry>
    <fullUrl value="urn:uuid:c33f152c-6a95-11ec-0000-020000000000"/>
    <resource>
      <Medication>
        <meta>
          <profile value="http://nictiz.nl/fhir/StructureDefinition/nl-core-PharmaceuticalProduct"/>
        </meta>
        <text>
          <status value="extensions"/>
          <div xmlns="http://www.w3.org/1999/xhtml">
            <table>
              <tbody>
                <tr>
                  <th>Code</th>
                  <td>
                    <span title="ACENOCOUMAROL TABLET 1MG (7323 - G-Standaard PRK)">ACENOCOUMAROL TABLET 1MG</span>
                  </td>
                </tr>
              </tbody>
            </table>
          </div>
        </text>
        <code>
          <coding>
            <system value="urn:oid:2.16.840.1.113883.2.4.4.10"/>
            <code value="7323"/>
            <display value="ACENOCOUMAROL TABLET 1MG"/>
            <userSelected value="true"/>
          </coding>
          <coding>
            <system value="urn:oid:2.16.840.1.113883.2.4.4.1"/>
            <code value="20303"/>
            <display value="ACENOCOUMAROL TABLET 1MG"/>
          </coding>
          <text value="ACENOCOUMAROL TABLET 1MG"/>
        </code>
      </Medication>
    </resource>
    <request>
      <method value="POST"/>
      <url value="Medication"/>
    </request>
  </entry>
</Bundle>
