<Bundle xmlns="http://hl7.org/fhir">
   <id value="mv-mp-vo-tst-4-2-a-nierfunctie-NHG-v20"/>
   <meta>
      <profile value="http://nictiz.nl/fhir/StructureDefinition/mp-MedicationPrescription-Bundle"/>
   </meta>
   <type value="transaction"/>
   <entry>
      <fullUrl value="urn:uuid:c33f0bd6-6a95-11ec-0000-020000000000"/>
      <resource>
         <MedicationRequest>
            <meta>
               <profile value="http://nictiz.nl/fhir/StructureDefinition/mp-MedicationAgreement"/>
               <tag>
                  <system value="http://terminology.hl7.org/CodeSystem/common-tags"/>
                  <code value="actionable"/>
               </tag>
            </meta>
            <extension url="http://nictiz.nl/fhir/StructureDefinition/ext-RenderedDosageInstruction">
               <valueString value="Vanaf T, 1 maal per dag 1 stuk, Oraal"/>
            </extension>
            <extension url="http://nictiz.nl/fhir/StructureDefinition/ext-TimeInterval.Period">
               <valuePeriod>
                  <start value="${DATE, T, D, +0}T00:00:00+02:00"/>
               </valuePeriod>
            </extension>
            <extension url="http://nictiz.nl/fhir/StructureDefinition/ext-PharmaceuticalTreatment.Identifier">
               <valueIdentifier>
                  <system value="urn:oid:2.16.840.1.113883.2.4.3.11.999.77.1.1"/>
                  <value value="MBH_200_Lengte_Gewicht"/>
               </valueIdentifier>
            </extension>
            <identifier>
               <system value="urn:oid:2.16.840.1.113883.2.4.3.11.999.77.16076005.1"/>
               <value value="MBH_200_Lengte_Gewicht_MA_1"/>
            </identifier>
            <status value="active"/>
            <intent value="order"/>
            <category>
               <coding>
                  <system value="http://snomed.info/sct"/>
                  <code value="33633005"/>
                  <display value="voorschrijven van geneesmiddel"/>
               </coding>
            </category>
            <medicationReference>
               <reference value="urn:uuid:c33f0c12-6a95-11ec-0000-020000000000"/>
               <type value="Medication"/>
               <display value="ACETYLSALICYLZUUR TABLETMSR 100MG"/>
            </medicationReference>
            <subject>
               <reference value="urn:uuid:c33f0b7c-6a95-11ec-0000-020000000000"/>
               <type value="Patient"/>
               <display value="Patient, E. XXX_Doppen"/>
            </subject>
            <authoredOn value="${DATE, T, D, +0}T07:05:00+02:00"/>
            <requester>
               <reference value="urn:uuid:c33f0b9a-6a95-11ec-0000-020000000000"/>
               <type value="PractitionerRole"/>
               <display value="Healthcare professional (role), Peter van Pulver, Huisartsen, niet nader gespecificeerd"/>
            </requester>
            <dosageInstruction>
               <timing>
                  <repeat>
                     <frequency value="1"/>
                     <period value="1"/>
                     <periodUnit value="d"/>
                  </repeat>
               </timing>
               <route>
                  <coding>
                     <system value="urn:oid:2.16.840.1.113883.2.4.4.9"/>
                     <code value="9"/>
                     <display value="Oraal"/>
                  </coding>
               </route>
               <doseAndRate>
                  <doseQuantity>
                     <extension url="http://hl7.org/fhir/StructureDefinition/iso21090-PQ-translation">
                        <valueQuantity>
                           <value value="1"/>
                           <unit value="stuk"/>
                           <system value="urn:oid:2.16.840.1.113883.2.4.4.1.900.2"/>
                           <code value="245"/>
                        </valueQuantity>
                     </extension>
                     <value value="1"/>
                     <unit value="stuk"/>
                     <system value="http://unitsofmeasure.org"/>
                     <code value="1"/>
                  </doseQuantity>
               </doseAndRate>
            </dosageInstruction>
         </MedicationRequest>
      </resource>
      <request>
         <method value="POST"/>
         <url value="MedicationRequest"/>
      </request>
   </entry>
   <entry>
      <fullUrl value="urn:uuid:c33f0bf4-6a95-11ec-0000-020000000000"/>
      <resource>
         <MedicationRequest>
            <meta>
               <profile value="http://nictiz.nl/fhir/StructureDefinition/mp-DispenseRequest"/>
               <tag>
                  <system value="http://terminology.hl7.org/CodeSystem/common-tags"/>
                  <code value="actionable"/>
               </tag>
            </meta>
            <extension url="http://nictiz.nl/fhir/StructureDefinition/ext-PharmaceuticalTreatment.Identifier">
               <valueIdentifier>
                  <system value="urn:oid:2.16.840.1.113883.2.4.3.11.999.77.1.1"/>
                  <value value="MBH_200_Lengte_Gewicht"/>
               </valueIdentifier>
            </extension>
            <identifier>
               <system value="urn:oid:2.16.840.1.113883.2.4.3.11.999.77.52711000146108.1"/>
               <value value="MBH_200_Lengte_Gewicht_VV_1"/>
            </identifier>
            <status value="active"/>
            <intent value="order"/>
            <category>
               <coding>
                  <system value="http://snomed.info/sct"/>
                  <code value="52711000146108"/>
                  <display value="verstrekkingsverzoek"/>
               </coding>
            </category>
            <medicationReference>
               <reference value="urn:uuid:c33f0c12-6a95-11ec-0000-020000000000"/>
               <type value="Medication"/>
               <display value="ACETYLSALICYLZUUR TABLETMSR 100MG"/>
            </medicationReference>
            <subject>
               <reference value="urn:uuid:c33f0b7c-6a95-11ec-0000-020000000000"/>
               <type value="Patient"/>
               <display value="Patient, E. XXX_Doppen"/>
            </subject>
            <authoredOn value="${DATE, T, D, +0}T07:05:00+02:00"/>
            <requester>
               <reference value="urn:uuid:c33f0b9a-6a95-11ec-0000-020000000000"/>
               <type value="PractitionerRole"/>
               <display value="Healthcare professional (role), Peter van Pulver, Huisartsen, niet nader gespecificeerd"/>
            </requester>
            <performer>
               <reference value="urn:uuid:c33f0c6c-6a95-11ec-0000-020000000000"/>
               <type value="Organization"/>
               <display value="Healthcare provider (organization), Apotheek De Gulle Gaper"/>
            </performer>
            <basedOn>
               <type value="MedicationRequest"/>
               <identifier>
                  <system value="urn:oid:2.16.840.1.113883.2.4.3.11.999.77.16076005.1"/>
                  <value value="MBH_200_Lengte_Gewicht_MA_1"/>
               </identifier>
               <display value="relatie naar medicatieafspraak  met identificatie: MBH_200_Lengte_Gewicht_MA_1 || 2.16.840.1.113883.2.4.3.11.999.77.16076005.1"/>
            </basedOn>
            <dispenseRequest>
               <quantity>
                  <extension url="http://hl7.org/fhir/StructureDefinition/iso21090-PQ-translation">
                     <valueQuantity>
                        <value value="180"/>
                        <unit value="stuk"/>
                        <system value="urn:oid:2.16.840.1.113883.2.4.4.1.900.2"/>
                        <code value="245"/>
                     </valueQuantity>
                  </extension>
                  <value value="180"/>
                  <unit value="stuk"/>
                  <system value="http://unitsofmeasure.org"/>
                  <code value="1"/>
               </quantity>
            </dispenseRequest>
         </MedicationRequest>
      </resource>
      <request>
         <method value="POST"/>
         <url value="MedicationRequest"/>
      </request>
   </entry>
   <entry>
      <fullUrl value="urn:uuid:6ac75bce-5c3f-11ed-9595-020000000000"/>
      <resource>
         <Observation>
            <meta>
               <profile value="http://nictiz.nl/fhir/StructureDefinition/nl-core-LaboratoryTestResult"/>
            </meta>
            <extension url="http://nictiz.nl/fhir/StructureDefinition/ext-EdifactReferenceNumber">
               <valueString value="111222"/>
            </extension>
            <identifier>
               <system value="urn:oid:2.16.840.1.113883.2.4.3.11.999.25.4298.2"/>
               <value value="11111"/>
            </identifier>
            <status value="final"/>
            <category>
               <coding>
                  <system value="http://terminology.hl7.org/CodeSystem/observation-category"/>
                  <code value="laboratory"/>
                  <display value="Laboratory"/>
               </coding>
            </category>
            <code>
               <coding>
                  <system value="https://referentiemodel.nhg.org/tabellen/nhg-tabel-45-diagnostische-bepalingen"/>
                  <code value="3583"/>
                  <display value="eGFR volgens CKD-EPI formule"/>
               </coding>
            </code>
            <subject>
               <reference value="urn:uuid:c33f0b7c-6a95-11ec-0000-020000000000"/>
               <type value="Patient"/>
               <display value="Patient, E. XXX_Doppen"/>
            </subject>
            <effectiveDateTime value="${DATE, T, D, -20}"/>
            <performer>
               <reference value="urn:uuid:6ac75c28-5c3f-11ed-9595-020000000000"/>
               <type value="Organization"/>
               <display value="Healthcare provider (organization), Klinisch chemisch Lab 't Proefje"/>
            </performer>
            <valueQuantity>
               <value value="97"/>
               <unit value="mL/min/{1.73_m2}"/>
               <system value="http://unitsofmeasure.org"/>
               <code value="mL/min/{1.73_m2}"/>
            </valueQuantity>
            <interpretation>
               <text value="Iets bovengemiddeld"/>
            </interpretation>
            <specimen>
               <reference value="urn:uuid:6ac75bb0-5c3f-11ed-9595-020000000000"/>
               <type value="Specimen"/>
               <display value="monster"/>
            </specimen>
            <referenceRange>
               <low>
                  <value value="90"/>
                  <unit value="mL/min/{1.73_m2}"/>
                  <system value="http://unitsofmeasure.org"/>
                  <code value="mL/min/{1.73_m2}"/>
               </low>
            </referenceRange>
         </Observation>
      </resource>
      <request>
         <method value="POST"/>
         <url value="Observation"/>
      </request>
   </entry>
   <entry>
      <fullUrl value="urn:uuid:6ac75bec-5c3f-11ed-9595-020000000000"/>
      <resource>
         <Observation>
            <meta>
               <profile value="http://nictiz.nl/fhir/StructureDefinition/nl-core-LaboratoryTestResult"/>
            </meta>
            <extension url="http://nictiz.nl/fhir/StructureDefinition/ext-EdifactReferenceNumber">
               <valueString value="111222"/>
            </extension>
            <identifier>
               <system value="urn:oid:2.16.840.1.113883.2.4.3.11.999.25.4298.2"/>
               <value value="22222"/>
            </identifier>
            <status value="final"/>
            <category>
               <coding>
                  <system value="http://terminology.hl7.org/CodeSystem/observation-category"/>
                  <code value="laboratory"/>
                  <display value="Laboratory"/>
               </coding>
            </category>
            <code>
               <coding>
                  <system value="https://referentiemodel.nhg.org/tabellen/nhg-tabel-45-diagnostische-bepalingen"/>
                  <code value="523"/>
                  <display value="creatinine"/>
               </coding>
            </code>
            <subject>
               <reference value="urn:uuid:c33f0b7c-6a95-11ec-0000-020000000000"/>
               <type value="Patient"/>
               <display value="Patient, E. XXX_Doppen"/>
            </subject>
            <effectiveDateTime value="${DATE, T, D, -20}"/>
            <performer>
               <reference value="urn:uuid:6ac75c28-5c3f-11ed-9595-020000000000"/>
               <type value="Organization"/>
               <display value="Healthcare provider (organization), Klinisch chemisch Lab 't Proefje"/>
            </performer>
            <valueQuantity>
               <value value="135"/>
               <unit value="umol/l"/>
               <system value="http://unitsofmeasure.org"/>
               <code value="umol/l"/>
            </valueQuantity>
            <interpretation>
               <coding>
                  <system value="http://snomed.info/sct"/>
                  <code value="281302008"/>
                  <display value="boven referentiebereik"/>
               </coding>
               <coding>
                  <system value="http://terminology.hl7.org/CodeSystem/v3-ObservationInterpretation"/>
                  <code value="H"/>
                  <display value="High"/>
               </coding>
            </interpretation>
            <interpretation>
               <text value="Creatinine iets hoger dan normaal."/>
            </interpretation>
            <method>
               <coding>
                  <system value="http://snomed.info/sct"/>
                  <code value="258026004"/>
                  <display value="enzyme method"/>
               </coding>
            </method>
            <specimen>
               <reference value="urn:uuid:6ac75bb0-5c3f-11ed-9595-020000000000"/>
               <type value="Specimen"/>
               <display value="monster"/>
            </specimen>
            <referenceRange>
               <low>
                  <value value="60"/>
                  <unit value="umol/l"/>
                  <system value="http://unitsofmeasure.org"/>
                  <code value="umol/l"/>
               </low>
               <high>
                  <value value="110"/>
                  <unit value="umol/l"/>
                  <system value="http://unitsofmeasure.org"/>
                  <code value="umol/l"/>
               </high>
            </referenceRange>
         </Observation>
      </resource>
      <request>
         <method value="POST"/>
         <url value="Observation"/>
      </request>
   </entry>
   <entry>
      <fullUrl value="urn:uuid:6ac75bb0-5c3f-11ed-9595-020000000000"/>
      <resource>
         <Specimen>
            <meta>
               <profile value="http://nictiz.nl/fhir/StructureDefinition/nl-core-LaboratoryTestResult.Specimen"/>
            </meta>
            <identifier>
               <system value="urn:oid:2.16.840.1.113883.2.4.3.11.999.25.4267.2"/>
               <value value="1111"/>
            </identifier>
            <subject>
               <reference value="urn:uuid:c33f0b7c-6a95-11ec-0000-020000000000"/>
               <type value="Patient"/>
               <display value="Patient, E. XXX_Doppen"/>
            </subject>
            <collection>
               <collectedDateTime value="${DATE, T, D, -20}"/>
            </collection>
            <note>
               <text value="Serum afgenomen bij patiënt."/>
            </note>
         </Specimen>
      </resource>
      <request>
         <method value="POST"/>
         <url value="Specimen"/>
      </request>
   </entry>
   <entry>
      <fullUrl value="urn:uuid:c33f0b7c-6a95-11ec-0000-020000000000"/>
      <resource>
         <Patient>
            <meta>
               <profile value="http://nictiz.nl/fhir/StructureDefinition/nl-core-Patient"/>
            </meta>
            <identifier>
               <system value="http://fhir.nl/fhir/NamingSystem/bsn"/>
               <value value="999900511"/>
            </identifier>
            <name>
               <extension url="http://hl7.org/fhir/StructureDefinition/humanname-assembly-order">
                  <valueCode value="NL1"/>
               </extension>
               <use value="official"/>
               <text value="E. XXX_Doppen"/>
               <family value="XXX_Doppen">
                  <extension url="http://hl7.org/fhir/StructureDefinition/humanname-own-name">
                     <valueString value="XXX_Doppen"/>
                  </extension>
               </family>
               <given value="E.">
                  <extension url="http://hl7.org/fhir/StructureDefinition/iso21090-EN-qualifier">
                     <valueCode value="IN"/>
                  </extension>
               </given>
            </name>
            <gender value="male">
               <extension url="http://nictiz.nl/fhir/StructureDefinition/ext-CodeSpecification">
                  <valueCodeableConcept>
                     <coding>
                        <system value="http://terminology.hl7.org/CodeSystem/v3-AdministrativeGender"/>
                        <code value="M"/>
                        <display value="Man"/>
                     </coding>
                  </valueCodeableConcept>
               </extension>
            </gender>
            <birthDate value="1963-10-24"/>
         </Patient>
      </resource>
      <request>
         <method value="POST"/>
         <url value="Patient"/>
      </request>
   </entry>
   <entry>
      <fullUrl value="urn:uuid:c33f0b9a-6a95-11ec-0000-020000000000"/>
      <resource>
         <PractitionerRole>
            <meta>
               <profile value="http://nictiz.nl/fhir/StructureDefinition/nl-core-HealthProfessional-PractitionerRole"/>
            </meta>
            <practitioner>
               <reference value="urn:uuid:c33f0bb8-6a95-11ec-0000-020000000000"/>
               <type value="Practitioner"/>
               <display value="Healthcare professional (person), Peter van Pulver"/>
            </practitioner>
            <organization>
               <reference value="urn:uuid:c33f0c30-6a95-11ec-0000-020000000000"/>
               <type value="Organization"/>
               <display value="Healthcare provider (organization), Huisartsenpraktijk Pulver &amp; Partners"/>
            </organization>
            <specialty>
               <coding>
                  <system value="urn:oid:2.16.840.1.113883.2.4.6.7"/>
                  <version value="2020-10-23T00:00:00"/>
                  <code value="0100"/>
                  <display value="Huisartsen, niet nader gespecificeerd"/>
               </coding>
            </specialty>
            <telecom>
               <system value="phone"/>
               <value value="1645645000"/>
               <use value="work"/>
            </telecom>
         </PractitionerRole>
      </resource>
      <request>
         <method value="POST"/>
         <url value="PractitionerRole"/>
      </request>
   </entry>
   <entry>
      <fullUrl value="urn:uuid:c33f0bb8-6a95-11ec-0000-020000000000"/>
      <resource>
         <Practitioner>
            <meta>
               <profile value="http://nictiz.nl/fhir/StructureDefinition/nl-core-HealthProfessional-Practitioner"/>
            </meta>
            <identifier>
               <system value="http://fhir.nl/fhir/NamingSystem/uzi-nr-pers"/>
               <value value="000001111"/>
            </identifier>
            <name>
               <use value="official"/>
               <text value="Peter van Pulver"/>
               <family value="van Pulver">
                  <extension url="http://hl7.org/fhir/StructureDefinition/humanname-own-prefix">
                     <valueString value="van"/>
                  </extension>
                  <extension url="http://hl7.org/fhir/StructureDefinition/humanname-own-name">
                     <valueString value="Pulver"/>
                  </extension>
               </family>
               <given value="Peter">
                  <extension url="http://hl7.org/fhir/StructureDefinition/iso21090-EN-qualifier">
                     <valueCode value="BR"/>
                  </extension>
               </given>
            </name>
            <telecom>
               <system value="phone"/>
               <value value="1645645000"/>
               <use value="work"/>
            </telecom>
         </Practitioner>
      </resource>
      <request>
         <method value="POST"/>
         <url value="Practitioner"/>
      </request>
   </entry>
   <entry>
      <fullUrl value="urn:uuid:c33f0c30-6a95-11ec-0000-020000000000"/>
      <resource>
         <Organization>
            <meta>
               <profile value="http://nictiz.nl/fhir/StructureDefinition/nl-core-HealthcareProvider-Organization"/>
            </meta>
            <identifier>
               <system value="http://fhir.nl/fhir/NamingSystem/ura"/>
               <value value="00001111"/>
            </identifier>
            <name value="Huisartsenpraktijk Pulver &amp; Partners"/>
            <address>
               <extension url="http://nictiz.nl/fhir/StructureDefinition/ext-AddressInformation.AddressType">
                  <valueCodeableConcept>
                     <coding>
                        <system value="http://terminology.hl7.org/CodeSystem/v3-AddressUse"/>
                        <code value="WP"/>
                        <display value="Werkadres"/>
                     </coding>
                  </valueCodeableConcept>
               </extension>
               <use value="work"/>
               <line value="Dorpsstraat 1">
                  <extension url="http://hl7.org/fhir/StructureDefinition/iso21090-ADXP-streetName">
                     <valueString value="Dorpsstraat"/>
                  </extension>
                  <extension url="http://hl7.org/fhir/StructureDefinition/iso21090-ADXP-houseNumber">
                     <valueString value="1"/>
                  </extension>
               </line>
               <city value="Ons Dorp"/>
               <postalCode value="1234AA"/>
            </address>
         </Organization>
      </resource>
      <request>
         <method value="POST"/>
         <url value="Organization"/>
      </request>
   </entry>
   <entry>
      <fullUrl value="urn:uuid:c33f0c6c-6a95-11ec-0000-020000000000"/>
      <resource>
         <Organization>
            <meta>
               <profile value="http://nictiz.nl/fhir/StructureDefinition/nl-core-HealthcareProvider-Organization"/>
            </meta>
            <identifier>
               <system value="http://fhir.nl/fhir/NamingSystem/ura"/>
               <value value="01236578"/>
            </identifier>
            <name value="Apotheek De Gulle Gaper"/>
         </Organization>
      </resource>
      <request>
         <method value="POST"/>
         <url value="Organization"/>
      </request>
   </entry>
   <entry>
      <fullUrl value="urn:uuid:6ac75c28-5c3f-11ed-9595-020000000000"/>
      <resource>
         <Organization>
            <meta>
               <profile value="http://nictiz.nl/fhir/StructureDefinition/nl-core-HealthcareProvider-Organization"/>
            </meta>
            <identifier>
               <system value="http://fhir.nl/fhir/NamingSystem/ura"/>
               <value value="00003333"/>
            </identifier>
            <type>
               <coding>
                  <system value="http://nictiz.nl/fhir/NamingSystem/organization-type"/>
                  <version value="2022-07-07T00:00:00"/>
                  <code value="L1"/>
                  <display value="Laboratorium"/>
               </coding>
            </type>
            <name value="Klinisch chemisch Lab 't Proefje"/>
            <telecom>
               <extension url="http://nictiz.nl/fhir/StructureDefinition/ext-Comment">
                  <valueString value="Bel met vragen"/>
               </extension>
               <system value="phone"/>
               <value value="06-11122233"/>
               <use value="work"/>
            </telecom>
            <telecom>
               <system value="email"/>
               <value value="tproefje@lab.nl"/>
               <use value="work"/>
            </telecom>
            <address>
               <extension url="http://nictiz.nl/fhir/StructureDefinition/ext-AddressInformation.AddressType">
                  <valueCodeableConcept>
                     <coding>
                        <system value="http://terminology.hl7.org/CodeSystem/v3-AddressUse"/>
                        <code value="WP"/>
                        <display value="Werkadres"/>
                     </coding>
                  </valueCodeableConcept>
               </extension>
               <use value="work"/>
               <line value="Hoofdstraat 23">
                  <extension url="http://hl7.org/fhir/StructureDefinition/iso21090-ADXP-streetName">
                     <valueString value="Hoofdstraat"/>
                  </extension>
                  <extension url="http://hl7.org/fhir/StructureDefinition/iso21090-ADXP-houseNumber">
                     <valueString value="23"/>
                  </extension>
               </line>
               <city value="Zorgstad"/>
               <postalCode value="1234AA"/>
            </address>
         </Organization>
      </resource>
      <request>
         <method value="POST"/>
         <url value="Organization"/>
      </request>
   </entry>
   <entry>
      <fullUrl value="urn:uuid:c33f0c12-6a95-11ec-0000-020000000000"/>
      <resource>
         <Medication>
            <meta>
               <profile value="http://nictiz.nl/fhir/StructureDefinition/nl-core-PharmaceuticalProduct"/>
            </meta>
            <code>
               <coding>
                  <system value="urn:oid:2.16.840.1.113883.2.4.4.10"/>
                  <code value="49484"/>
                  <display value="ACETYLSALICYLZUUR TABLETMSR 100MG"/>
                  <userSelected value="true"/>
               </coding>
               <coding>
                  <system value="urn:oid:2.16.840.1.113883.2.4.4.1"/>
                  <code value="103039"/>
                  <display value="ACETYLSALICYLZUUR TABLETMSR 100MG"/>
               </coding>
               <text value="ACETYLSALICYLZUUR TABLETMSR 100MG"/>
            </code>
         </Medication>
      </resource>
      <request>
         <method value="POST"/>
         <url value="Medication"/>
      </request>
   </entry>
</Bundle>
