{
  "resourceType": "Bundle",
  "id": "mv-mp-vo-tst-6-6-variabele-hoeveelheid-2-v20",
  "meta": {
    "profile": [
      "http://nictiz.nl/fhir/StructureDefinition/mp-MedicationPrescription-Bundle"
    ]
  },
  "type": "transaction",
  "entry": [
    {
      "fullUrl": "urn:uuid:c33f0ffa-6a95-11ec-0000-020000000000",
      "resource": {
        "resourceType": "MedicationRequest",
        "meta": {
          "profile": [
            "http://nictiz.nl/fhir/StructureDefinition/mp-MedicationAgreement"
          ],
          "tag": [
            {
              "system": "http://terminology.hl7.org/CodeSystem/common-tags",
              "code": "actionable"
            }
          ]
        },
        "extension": [
          {
            "url": "http://nictiz.nl/fhir/StructureDefinition/ext-RenderedDosageInstruction",
            "valueString": "Vanaf T, tot en met T + 28 dagen, 2 maal per dag 10 à 15 ml, Eerst oplossen in water, mond spoelen, daarna uitspugen, OROMUCOSAAL"
          },
          {
            "url": "http://nictiz.nl/fhir/StructureDefinition/ext-TimeInterval.Period",
            "valuePeriod": {
              "start": "${DATE, T, D, +0}T00:00:00+02:00",
              "end": "${DATE, T, D, +28}T23:59:59+02:00"
            }
          },
          {
            "url": "http://nictiz.nl/fhir/StructureDefinition/ext-PharmaceuticalTreatment.Identifier",
            "valueIdentifier": {
              "system": "urn:oid:2.16.840.1.113883.2.4.3.11.999.77.1.1",
              "value": "MBH_200_variabelehoeveelheid2"
            }
          }
        ],
        "identifier": [
          {
            "system": "urn:oid:2.16.840.1.113883.2.4.3.11.999.77.16076005.1",
            "value": "MBH_200_variabelehoeveelheid2_MA"
          }
        ],
        "status": "active",
        "intent": "order",
        "category": [
          {
            "coding": [
              {
                "system": "http://snomed.info/sct",
                "code": "33633005",
                "display": "voorschrijven van geneesmiddel"
              }
            ]
          }
        ],
        "medicationReference": {
          "reference": "urn:uuid:c33f1036-6a95-11ec-0000-020000000000",
          "type": "Medication",
          "display": "WATERSTOFPEROXIDE CONC VOOR MONDSPOELING 30MG/ML"
        },
        "subject": {
          "reference": "urn:uuid:c33f0fa0-6a95-11ec-0000-020000000000",
          "type": "Patient",
          "display": "Patient, G. XXX_Hemsbergen"
        },
        "authoredOn": "${DATE, T, D, +0}T08:18:00+02:00",
        "requester": {
          "reference": "urn:uuid:c33f0fbe-6a95-11ec-0000-020000000000",
          "type": "PractitionerRole",
          "display": "Healthcare professional (role), Peter van Pulver, Huisartsen, niet nader gespecificeerd"
        },
        "dosageInstruction": [
          {
            "additionalInstruction": [
              {
                "coding": [
                  {
                    "system": "https://referentiemodel.nhg.org/tabellen/nhg-tabel-25-gebruiksvoorschrift#aanvullend-numeriek",
                    "code": "27",
                    "display": "Eerst oplossen in water"
                  }
                ]
              },
              {
                "coding": [
                  {
                    "system": "https://referentiemodel.nhg.org/tabellen/nhg-tabel-25-gebruiksvoorschrift#aanvullend-numeriek",
                    "code": "69",
                    "display": "mond spoelen, daarna uitspugen"
                  }
                ]
              }
            ],
            "timing": {
              "repeat": {
                "frequency": 2,
                "period": 1,
                "periodUnit": "d"
              }
            },
            "route": {
              "coding": [
                {
                  "system": "urn:oid:2.16.840.1.113883.2.4.4.9",
                  "code": "34",
                  "display": "OROMUCOSAAL"
                }
              ]
            },
            "doseAndRate": [
              {
                "doseRange": {
                  "low": {
                    "extension": [
                      {
                        "url": "http://hl7.org/fhir/StructureDefinition/iso21090-PQ-translation",
                        "valueQuantity": {
                          "value": 10,
                          "unit": "milliliter",
                          "system": "urn:oid:2.16.840.1.113883.2.4.4.1.900.2",
                          "code": "233"
                        }
                      }
                    ],
                    "value": 10,
                    "unit": "milliliter",
                    "system": "http://unitsofmeasure.org",
                    "code": "ml"
                  },
                  "high": {
                    "extension": [
                      {
                        "url": "http://hl7.org/fhir/StructureDefinition/iso21090-PQ-translation",
                        "valueQuantity": {
                          "value": 15,
                          "unit": "milliliter",
                          "system": "urn:oid:2.16.840.1.113883.2.4.4.1.900.2",
                          "code": "233"
                        }
                      }
                    ],
                    "value": 15,
                    "unit": "milliliter",
                    "system": "http://unitsofmeasure.org",
                    "code": "ml"
                  }
                }
              }
            ]
          }
        ]
      },
      "request": {
        "method": "POST",
        "url": "MedicationRequest"
      }
    },
    {
      "fullUrl": "urn:uuid:c33f1018-6a95-11ec-0000-020000000000",
      "resource": {
        "resourceType": "MedicationRequest",
        "meta": {
          "profile": [
            "http://nictiz.nl/fhir/StructureDefinition/mp-DispenseRequest"
          ],
          "tag": [
            {
              "system": "http://terminology.hl7.org/CodeSystem/common-tags",
              "code": "actionable"
            }
          ]
        },
        "extension": [
          {
            "url": "http://nictiz.nl/fhir/StructureDefinition/ext-PharmaceuticalTreatment.Identifier",
            "valueIdentifier": {
              "system": "urn:oid:2.16.840.1.113883.2.4.3.11.999.77.1.1",
              "value": "MBH_200_variabelehoeveelheid2"
            }
          }
        ],
        "identifier": [
          {
            "system": "urn:oid:2.16.840.1.113883.2.4.3.11.999.77.52711000146108.1",
            "value": "MBH_200_variabelehoeveelheid2_VV"
          }
        ],
        "status": "active",
        "intent": "order",
        "category": [
          {
            "coding": [
              {
                "system": "http://snomed.info/sct",
                "code": "52711000146108",
                "display": "verstrekkingsverzoek"
              }
            ]
          }
        ],
        "medicationReference": {
          "reference": "urn:uuid:c33f1036-6a95-11ec-0000-020000000000",
          "type": "Medication",
          "display": "WATERSTOFPEROXIDE CONC VOOR MONDSPOELING 30MG/ML"
        },
        "subject": {
          "reference": "urn:uuid:c33f0fa0-6a95-11ec-0000-020000000000",
          "type": "Patient",
          "display": "Patient, G. XXX_Hemsbergen"
        },
        "authoredOn": "${DATE, T, D, +0}T08:18:00+02:00",
        "requester": {
          "reference": "urn:uuid:c33f0fbe-6a95-11ec-0000-020000000000",
          "type": "PractitionerRole",
          "display": "Healthcare professional (role), Peter van Pulver, Huisartsen, niet nader gespecificeerd"
        },
        "performer": {
          "reference": "urn:uuid:c33f1090-6a95-11ec-0000-020000000000",
          "type": "Organization",
          "display": "Healthcare provider (organization), Apotheek de Gulle Gaper"
        },
        "basedOn": [
          {
            "type": "MedicationRequest",
            "identifier": {
              "system": "urn:oid:2.16.840.1.113883.2.4.3.11.999.77.16076005.1",
              "value": "MBH_200_variabelehoeveelheid2_MA"
            },
            "display": "relatie naar medicatieafspraak  met identificatie: MBH_200_variabelehoeveelheid2_MA || 2.16.840.1.113883.2.4.3.11.999.77.16076005.1"
          }
        ],
        "dispenseRequest": {
          "quantity": {
            "extension": [
              {
                "url": "http://hl7.org/fhir/StructureDefinition/iso21090-PQ-translation",
                "valueQuantity": {
                  "value": 450,
                  "unit": "milliliter",
                  "system": "urn:oid:2.16.840.1.113883.2.4.4.1.900.2",
                  "code": "233"
                }
              }
            ],
            "value": 450,
            "unit": "milliliter",
            "system": "http://unitsofmeasure.org",
            "code": "ml"
          }
        }
      },
      "request": {
        "method": "POST",
        "url": "MedicationRequest"
      }
    },
    {
      "fullUrl": "urn:uuid:c33f0fa0-6a95-11ec-0000-020000000000",
      "resource": {
        "resourceType": "Patient",
        "meta": {
          "profile": [
            "http://nictiz.nl/fhir/StructureDefinition/nl-core-Patient"
          ]
        },
        "identifier": [
          {
            "system": "http://fhir.nl/fhir/NamingSystem/bsn",
            "value": "999900602"
          }
        ],
        "name": [
          {
            "extension": [
              {
                "url": "http://hl7.org/fhir/StructureDefinition/humanname-assembly-order",
                "valueCode": "NL1"
              }
            ],
            "use": "official",
            "text": "G. XXX_Hemsbergen",
            "family": "XXX_Hemsbergen",
            "_family": {
              "extension": [
                {
                  "url": "http://hl7.org/fhir/StructureDefinition/humanname-own-name",
                  "valueString": "XXX_Hemsbergen"
                }
              ]
            },
            "given": [
              "G."
            ],
            "_given": [
              {
                "extension": [
                  {
                    "url": "http://hl7.org/fhir/StructureDefinition/iso21090-EN-qualifier",
                    "valueCode": "IN"
                  }
                ]
              }
            ]
          }
        ],
        "gender": "female",
        "_gender": {
          "extension": [
            {
              "url": "http://nictiz.nl/fhir/StructureDefinition/ext-CodeSpecification",
              "valueCodeableConcept": {
                "coding": [
                  {
                    "system": "http://terminology.hl7.org/CodeSystem/v3-AdministrativeGender",
                    "code": "F",
                    "display": "Vrouw"
                  }
                ]
              }
            }
          ]
        },
        "birthDate": "1963-11-02"
      },
      "request": {
        "method": "POST",
        "url": "Patient"
      }
    },
    {
      "fullUrl": "urn:uuid:c33f0fbe-6a95-11ec-0000-020000000000",
      "resource": {
        "resourceType": "PractitionerRole",
        "meta": {
          "profile": [
            "http://nictiz.nl/fhir/StructureDefinition/nl-core-HealthProfessional-PractitionerRole"
          ]
        },
        "practitioner": {
          "reference": "urn:uuid:c33f0fdc-6a95-11ec-0000-020000000000",
          "type": "Practitioner",
          "display": "Healthcare professional (person), Peter van Pulver"
        },
        "organization": {
          "reference": "urn:uuid:c33f1054-6a95-11ec-0000-020000000000",
          "type": "Organization",
          "display": "Healthcare provider (organization), Huisartsenpraktijk Pulver & Partners"
        },
        "specialty": [
          {
            "coding": [
              {
                "system": "urn:oid:2.16.840.1.113883.2.4.6.7",
                "version": "2020-10-23T00:00:00",
                "code": "0100",
                "display": "Huisartsen, niet nader gespecificeerd"
              }
            ]
          }
        ],
        "telecom": [
          {
            "system": "phone",
            "value": "1645645000",
            "use": "work"
          }
        ]
      },
      "request": {
        "method": "POST",
        "url": "PractitionerRole"
      }
    },
    {
      "fullUrl": "urn:uuid:c33f0fdc-6a95-11ec-0000-020000000000",
      "resource": {
        "resourceType": "Practitioner",
        "meta": {
          "profile": [
            "http://nictiz.nl/fhir/StructureDefinition/nl-core-HealthProfessional-Practitioner"
          ]
        },
        "identifier": [
          {
            "system": "http://fhir.nl/fhir/NamingSystem/uzi-nr-pers",
            "value": "000001111"
          }
        ],
        "name": [
          {
            "use": "official",
            "text": "Peter van Pulver",
            "family": "van Pulver",
            "_family": {
              "extension": [
                {
                  "url": "http://hl7.org/fhir/StructureDefinition/humanname-own-prefix",
                  "valueString": "van"
                },
                {
                  "url": "http://hl7.org/fhir/StructureDefinition/humanname-own-name",
                  "valueString": "Pulver"
                }
              ]
            },
            "given": [
              "Peter"
            ],
            "_given": [
              {
                "extension": [
                  {
                    "url": "http://hl7.org/fhir/StructureDefinition/iso21090-EN-qualifier",
                    "valueCode": "BR"
                  }
                ]
              }
            ]
          }
        ],
        "telecom": [
          {
            "system": "phone",
            "value": "1645645000",
            "use": "work"
          }
        ]
      },
      "request": {
        "method": "POST",
        "url": "Practitioner"
      }
    },
    {
      "fullUrl": "urn:uuid:c33f1054-6a95-11ec-0000-020000000000",
      "resource": {
        "resourceType": "Organization",
        "meta": {
          "profile": [
            "http://nictiz.nl/fhir/StructureDefinition/nl-core-HealthcareProvider-Organization"
          ]
        },
        "identifier": [
          {
            "system": "http://fhir.nl/fhir/NamingSystem/ura",
            "value": "00001111"
          }
        ],
        "name": "Huisartsenpraktijk Pulver & Partners",
        "address": [
          {
            "extension": [
              {
                "url": "http://nictiz.nl/fhir/StructureDefinition/ext-AddressInformation.AddressType",
                "valueCodeableConcept": {
                  "coding": [
                    {
                      "system": "http://terminology.hl7.org/CodeSystem/v3-AddressUse",
                      "code": "WP",
                      "display": "Werkadres"
                    }
                  ]
                }
              }
            ],
            "use": "work",
            "line": [
              "Dorpsstraat 1"
            ],
            "_line": [
              {
                "extension": [
                  {
                    "url": "http://hl7.org/fhir/StructureDefinition/iso21090-ADXP-streetName",
                    "valueString": "Dorpsstraat"
                  },
                  {
                    "url": "http://hl7.org/fhir/StructureDefinition/iso21090-ADXP-houseNumber",
                    "valueString": "1"
                  }
                ]
              }
            ],
            "city": "Ons Dorp",
            "postalCode": "1234AA"
          }
        ]
      },
      "request": {
        "method": "POST",
        "url": "Organization"
      }
    },
    {
      "fullUrl": "urn:uuid:c33f1090-6a95-11ec-0000-020000000000",
      "resource": {
        "resourceType": "Organization",
        "meta": {
          "profile": [
            "http://nictiz.nl/fhir/StructureDefinition/nl-core-HealthcareProvider-Organization"
          ]
        },
        "identifier": [
          {
            "system": "http://fhir.nl/fhir/NamingSystem/ura",
            "value": "01236578"
          }
        ],
        "name": "Apotheek de Gulle Gaper"
      },
      "request": {
        "method": "POST",
        "url": "Organization"
      }
    },
    {
      "fullUrl": "urn:uuid:c33f1036-6a95-11ec-0000-020000000000",
      "resource": {
        "resourceType": "Medication",
        "meta": {
          "profile": [
            "http://nictiz.nl/fhir/StructureDefinition/nl-core-PharmaceuticalProduct"
          ]
        },
        "code": {
          "coding": [
            {
              "system": "urn:oid:2.16.840.1.113883.2.4.4.10",
              "code": "72664",
              "display": "WATERSTOFPEROXIDE CONC VOOR MONDSPOELING 30MG/ML",
              "userSelected": true
            },
            {
              "system": "urn:oid:2.16.840.1.113883.2.4.4.1",
              "code": "119903",
              "display": "WATERSTOFPEROXIDE CONC VOOR MONDSPOELING 30MG/ML"
            }
          ],
          "text": "WATERSTOFPEROXIDE CONC VOOR MONDSPOELING 30MG/ML"
        }
      },
      "request": {
        "method": "POST",
        "url": "Medication"
      }
    }
  ]
}