{
  "resourceType": "Bundle",
  "id": "mv-mp-vo-tst-1-2a-ingangdatum-duur-weken-v20",
  "meta": {
    "profile": [
      "http://nictiz.nl/fhir/StructureDefinition/mp-MedicationPrescription-Bundle"
    ]
  },
  "type": "transaction",
  "entry": [
    {
      "fullUrl": "urn:uuid:c33f09d8-6a95-11ec-0000-020000000000",
      "resource": {
        "resourceType": "MedicationRequest",
        "meta": {
          "profile": [
            "http://nictiz.nl/fhir/StructureDefinition/mp-MedicationAgreement"
          ],
          "tag": [
            {
              "system": "http://terminology.hl7.org/CodeSystem/common-tags",
              "code": "actionable"
            }
          ]
        },
        "extension": [
          {
            "url": "http://nictiz.nl/fhir/StructureDefinition/ext-RenderedDosageInstruction",
            "valueString": "Vanaf T, gedurende 3 weken, 1 maal per dag 1 stuk, oraal"
          },
          {
            "url": "http://nictiz.nl/fhir/StructureDefinition/ext-TimeInterval.Period",
            "valuePeriod": {
              "extension": [
                {
                  "url": "http://nictiz.nl/fhir/StructureDefinition/ext-TimeInterval.Duration",
                  "valueDuration": {
                    "value": 3,
                    "unit": "week",
                    "system": "http://unitsofmeasure.org",
                    "code": "wk"
                  }
                }
              ],
              "start": "${DATE, T, D, +0}T00:00:00+02:00"
            }
          },
          {
            "url": "http://nictiz.nl/fhir/StructureDefinition/ext-PharmaceuticalTreatment.Identifier",
            "valueIdentifier": {
              "system": "urn:oid:2.16.840.1.113883.2.4.3.11.999.77.1.1",
              "value": "MBH_200_start_duur"
            }
          }
        ],
        "identifier": [
          {
            "system": "urn:oid:2.16.840.1.113883.2.4.3.11.999.77.16076005.1",
            "value": "MBH_200_start_duur_MA"
          }
        ],
        "status": "active",
        "intent": "order",
        "category": [
          {
            "coding": [
              {
                "system": "http://snomed.info/sct",
                "code": "33633005",
                "display": "voorschrijven van geneesmiddel"
              }
            ]
          }
        ],
        "medicationReference": {
          "reference": "urn:uuid:c33f0a14-6a95-11ec-0000-020000000000",
          "type": "Medication",
          "display": "LISINOPRIL 10MG TABLET"
        },
        "subject": {
          "reference": "urn:uuid:c33f097e-6a95-11ec-0000-020000000000",
          "type": "Patient",
          "display": "Patient, C. XXX_Brugge"
        },
        "authoredOn": "${DATE, T, D, +0}T11:30:00+02:00",
        "requester": {
          "reference": "urn:uuid:c33f099c-6a95-11ec-0000-020000000000",
          "type": "PractitionerRole",
          "display": "Healthcare professional (role), Peter van Pulver, Huisartsen, niet nader gespecificeerd"
        },
        "dosageInstruction": [
          {
            "timing": {
              "repeat": {
                "frequency": 1,
                "period": 1,
                "periodUnit": "d"
              }
            },
            "route": {
              "coding": [
                {
                  "system": "urn:oid:2.16.840.1.113883.2.4.4.9",
                  "code": "9",
                  "display": "oraal"
                }
              ]
            },
            "doseAndRate": [
              {
                "doseQuantity": {
                  "extension": [
                    {
                      "url": "http://hl7.org/fhir/StructureDefinition/iso21090-PQ-translation",
                      "valueQuantity": {
                        "value": 1,
                        "unit": "stuk",
                        "system": "urn:oid:2.16.840.1.113883.2.4.4.1.900.2",
                        "code": "245"
                      }
                    }
                  ],
                  "value": 1,
                  "unit": "stuk",
                  "system": "http://unitsofmeasure.org",
                  "code": "1"
                }
              }
            ]
          }
        ]
      },
      "request": {
        "method": "POST",
        "url": "MedicationRequest"
      }
    },
    {
      "fullUrl": "urn:uuid:c33f09f6-6a95-11ec-0000-020000000000",
      "resource": {
        "resourceType": "MedicationRequest",
        "meta": {
          "profile": [
            "http://nictiz.nl/fhir/StructureDefinition/mp-DispenseRequest"
          ],
          "tag": [
            {
              "system": "http://terminology.hl7.org/CodeSystem/common-tags",
              "code": "actionable"
            }
          ]
        },
        "extension": [
          {
            "url": "http://nictiz.nl/fhir/StructureDefinition/ext-PharmaceuticalTreatment.Identifier",
            "valueIdentifier": {
              "system": "urn:oid:2.16.840.1.113883.2.4.3.11.999.77.1.1",
              "value": "MBH_200_start_duur"
            }
          }
        ],
        "identifier": [
          {
            "system": "urn:oid:2.16.840.1.113883.2.4.3.11.999.77.52711000146108.1",
            "value": "MBH_200_start_duur_VV"
          }
        ],
        "status": "active",
        "intent": "order",
        "category": [
          {
            "coding": [
              {
                "system": "http://snomed.info/sct",
                "code": "52711000146108",
                "display": "verstrekkingsverzoek"
              }
            ]
          }
        ],
        "medicationReference": {
          "reference": "urn:uuid:c33f0a32-6a95-11ec-0000-020000000000",
          "type": "Medication",
          "display": "LISINOPRIL SANDOZ TABLET 10MG"
        },
        "subject": {
          "reference": "urn:uuid:c33f097e-6a95-11ec-0000-020000000000",
          "type": "Patient",
          "display": "Patient, C. XXX_Brugge"
        },
        "authoredOn": "${DATE, T, D, +0}T11:30:00+02:00",
        "requester": {
          "reference": "urn:uuid:c33f099c-6a95-11ec-0000-020000000000",
          "type": "PractitionerRole",
          "display": "Healthcare professional (role), Peter van Pulver, Huisartsen, niet nader gespecificeerd"
        },
        "performer": {
          "reference": "urn:uuid:c33f0a8c-6a95-11ec-0000-020000000000",
          "type": "Organization",
          "display": "Healthcare provider (organization), Apotheek De Gulle Gaper"
        },
        "basedOn": [
          {
            "type": "MedicationRequest",
            "identifier": {
              "system": "urn:oid:2.16.840.1.113883.2.4.3.11.999.77.16076005.1",
              "value": "MBH_200_start_duur_MA"
            },
            "display": "relatie naar medicatieafspraak  met identificatie: MBH_200_start_duur_MA || 2.16.840.1.113883.2.4.3.11.999.77.16076005.1"
          }
        ],
        "dispenseRequest": {
          "quantity": {
            "extension": [
              {
                "url": "http://hl7.org/fhir/StructureDefinition/iso21090-PQ-translation",
                "valueQuantity": {
                  "value": 21,
                  "unit": "stuk",
                  "system": "urn:oid:2.16.840.1.113883.2.4.4.1.900.2",
                  "code": "245"
                }
              }
            ],
            "value": 21,
            "unit": "stuk",
            "system": "http://unitsofmeasure.org",
            "code": "1"
          }
        }
      },
      "request": {
        "method": "POST",
        "url": "MedicationRequest"
      }
    },
    {
      "fullUrl": "urn:uuid:c33f097e-6a95-11ec-0000-020000000000",
      "resource": {
        "resourceType": "Patient",
        "meta": {
          "profile": [
            "http://nictiz.nl/fhir/StructureDefinition/nl-core-Patient"
          ]
        },
        "identifier": [
          {
            "system": "http://fhir.nl/fhir/NamingSystem/bsn",
            "value": "999900419"
          }
        ],
        "name": [
          {
            "extension": [
              {
                "url": "http://hl7.org/fhir/StructureDefinition/humanname-assembly-order",
                "valueCode": "NL1"
              }
            ],
            "use": "official",
            "text": "C. XXX_Brugge",
            "family": "XXX_Brugge",
            "_family": {
              "extension": [
                {
                  "url": "http://hl7.org/fhir/StructureDefinition/humanname-own-name",
                  "valueString": "XXX_Brugge"
                }
              ]
            },
            "given": [
              "C."
            ],
            "_given": [
              {
                "extension": [
                  {
                    "url": "http://hl7.org/fhir/StructureDefinition/iso21090-EN-qualifier",
                    "valueCode": "IN"
                  }
                ]
              }
            ]
          }
        ],
        "gender": "male",
        "_gender": {
          "extension": [
            {
              "url": "http://nictiz.nl/fhir/StructureDefinition/ext-CodeSpecification",
              "valueCodeableConcept": {
                "coding": [
                  {
                    "system": "http://terminology.hl7.org/CodeSystem/v3-AdministrativeGender",
                    "code": "M",
                    "display": "Man"
                  }
                ]
              }
            }
          ]
        },
        "birthDate": "1963-10-16"
      },
      "request": {
        "method": "POST",
        "url": "Patient"
      }
    },
    {
      "fullUrl": "urn:uuid:c33f099c-6a95-11ec-0000-020000000000",
      "resource": {
        "resourceType": "PractitionerRole",
        "meta": {
          "profile": [
            "http://nictiz.nl/fhir/StructureDefinition/nl-core-HealthProfessional-PractitionerRole"
          ]
        },
        "practitioner": {
          "reference": "urn:uuid:c33f09ba-6a95-11ec-0000-020000000000",
          "type": "Practitioner",
          "display": "Healthcare professional (person), Peter van Pulver"
        },
        "organization": {
          "reference": "urn:uuid:c33f0a50-6a95-11ec-0000-020000000000",
          "type": "Organization",
          "display": "Healthcare provider (organization), Huisartsenpraktijk Pulver & Partners"
        },
        "specialty": [
          {
            "coding": [
              {
                "system": "urn:oid:2.16.840.1.113883.2.4.6.7",
                "version": "2020-10-23T00:00:00",
                "code": "0100",
                "display": "Huisartsen, niet nader gespecificeerd"
              }
            ]
          }
        ],
        "telecom": [
          {
            "system": "phone",
            "value": "1645645000",
            "use": "work"
          }
        ]
      },
      "request": {
        "method": "POST",
        "url": "PractitionerRole"
      }
    },
    {
      "fullUrl": "urn:uuid:c33f09ba-6a95-11ec-0000-020000000000",
      "resource": {
        "resourceType": "Practitioner",
        "meta": {
          "profile": [
            "http://nictiz.nl/fhir/StructureDefinition/nl-core-HealthProfessional-Practitioner"
          ]
        },
        "identifier": [
          {
            "system": "http://fhir.nl/fhir/NamingSystem/uzi-nr-pers",
            "value": "000001111"
          }
        ],
        "name": [
          {
            "use": "official",
            "text": "Peter van Pulver",
            "family": "van Pulver",
            "_family": {
              "extension": [
                {
                  "url": "http://hl7.org/fhir/StructureDefinition/humanname-own-prefix",
                  "valueString": "van"
                },
                {
                  "url": "http://hl7.org/fhir/StructureDefinition/humanname-own-name",
                  "valueString": "Pulver"
                }
              ]
            },
            "given": [
              "Peter"
            ],
            "_given": [
              {
                "extension": [
                  {
                    "url": "http://hl7.org/fhir/StructureDefinition/iso21090-EN-qualifier",
                    "valueCode": "BR"
                  }
                ]
              }
            ]
          }
        ],
        "telecom": [
          {
            "system": "phone",
            "value": "1645645000",
            "use": "work"
          }
        ]
      },
      "request": {
        "method": "POST",
        "url": "Practitioner"
      }
    },
    {
      "fullUrl": "urn:uuid:c33f0a50-6a95-11ec-0000-020000000000",
      "resource": {
        "resourceType": "Organization",
        "meta": {
          "profile": [
            "http://nictiz.nl/fhir/StructureDefinition/nl-core-HealthcareProvider-Organization"
          ]
        },
        "identifier": [
          {
            "system": "http://fhir.nl/fhir/NamingSystem/ura",
            "value": "00001111"
          }
        ],
        "name": "Huisartsenpraktijk Pulver & Partners",
        "address": [
          {
            "extension": [
              {
                "url": "http://nictiz.nl/fhir/StructureDefinition/ext-AddressInformation.AddressType",
                "valueCodeableConcept": {
                  "coding": [
                    {
                      "system": "http://terminology.hl7.org/CodeSystem/v3-AddressUse",
                      "code": "WP",
                      "display": "Werkadres"
                    }
                  ]
                }
              }
            ],
            "use": "work",
            "line": [
              "Dorpsstraat 1"
            ],
            "_line": [
              {
                "extension": [
                  {
                    "url": "http://hl7.org/fhir/StructureDefinition/iso21090-ADXP-streetName",
                    "valueString": "Dorpsstraat"
                  },
                  {
                    "url": "http://hl7.org/fhir/StructureDefinition/iso21090-ADXP-houseNumber",
                    "valueString": "1"
                  }
                ]
              }
            ],
            "city": "Ons Dorp",
            "postalCode": "1234AA"
          }
        ]
      },
      "request": {
        "method": "POST",
        "url": "Organization"
      }
    },
    {
      "fullUrl": "urn:uuid:c33f0a8c-6a95-11ec-0000-020000000000",
      "resource": {
        "resourceType": "Organization",
        "meta": {
          "profile": [
            "http://nictiz.nl/fhir/StructureDefinition/nl-core-HealthcareProvider-Organization"
          ]
        },
        "identifier": [
          {
            "system": "http://fhir.nl/fhir/NamingSystem/ura",
            "value": "01236578"
          }
        ],
        "name": "Apotheek De Gulle Gaper"
      },
      "request": {
        "method": "POST",
        "url": "Organization"
      }
    },
    {
      "fullUrl": "urn:uuid:c33f0a14-6a95-11ec-0000-020000000000",
      "resource": {
        "resourceType": "Medication",
        "meta": {
          "profile": [
            "http://nictiz.nl/fhir/StructureDefinition/nl-core-PharmaceuticalProduct"
          ]
        },
        "code": {
          "coding": [
            {
              "system": "urn:oid:2.16.840.1.113883.2.4.4.10",
              "code": "26638",
              "display": "LISINOPRIL 10MG TABLET",
              "userSelected": true
            },
            {
              "system": "urn:oid:2.16.840.1.113883.2.4.4.1",
              "code": "71587",
              "display": "LISINOPRIL 10MG TABLET"
            }
          ],
          "text": "LISINOPRIL 10MG TABLET"
        }
      },
      "request": {
        "method": "POST",
        "url": "Medication"
      }
    },
    {
      "fullUrl": "urn:uuid:c33f0a32-6a95-11ec-0000-020000000000",
      "resource": {
        "resourceType": "Medication",
        "meta": {
          "profile": [
            "http://nictiz.nl/fhir/StructureDefinition/nl-core-PharmaceuticalProduct"
          ]
        },
        "code": {
          "coding": [
            {
              "system": "urn:oid:2.16.840.1.113883.2.4.4.7",
              "code": "1506773",
              "display": "LISINOPRIL SANDOZ TABLET 10MG",
              "userSelected": true
            },
            {
              "system": "urn:oid:2.16.840.1.113883.2.4.4.10",
              "code": "26638",
              "display": "LISINOPRIL 10MG TABLET"
            },
            {
              "system": "urn:oid:2.16.840.1.113883.2.4.4.1",
              "code": "71587",
              "display": "LISINOPRIL 10MG TABLET"
            }
          ],
          "text": "LISINOPRIL SANDOZ TABLET 10MG"
        }
      },
      "request": {
        "method": "POST",
        "url": "Medication"
      }
    }
  ]
}