{
  "resourceType": "Bundle",
  "id": "mv-mp-vo-tst-3-2a-wijzigen-verhoging-v20",
  "meta": {
    "profile": [
      "http://nictiz.nl/fhir/StructureDefinition/mp-MedicationPrescription-Bundle"
    ]
  },
  "type": "transaction",
  "entry": [
    {
      "fullUrl": "urn:uuid:c33f1fcc-6a95-11ec-0000-020000000000",
      "resource": {
        "resourceType": "MedicationRequest",
        "id": "mp-MedAgr-mp9-MBH200wijzigenverhogingMAstart",
        "meta": {
          "profile": [
            "http://nictiz.nl/fhir/StructureDefinition/mp-MedicationAgreement"
          ],
          "tag": [
            {
              "system": "http://terminology.hl7.org/CodeSystem/common-tags",
              "code": "actionable"
            }
          ]
        },
        "extension": [
          {
            "url": "http://nictiz.nl/fhir/StructureDefinition/ext-RenderedDosageInstruction",
            "valueString": "Vanaf T om 09:00 uur, 1 maal per dag 1 stuk, Oraal"
          },
          {
            "url": "http://nictiz.nl/fhir/StructureDefinition/ext-TimeInterval.Period",
            "valuePeriod": {
              "start": "${DATE, T, D, +0}T09:00:00+02:00"
            }
          },
          {
            "url": "http://nictiz.nl/fhir/StructureDefinition/ext-PharmaceuticalTreatment.Identifier",
            "valueIdentifier": {
              "system": "urn:oid:2.16.840.1.113883.2.4.3.11.999.77.1.1",
              "value": "MBH_200_wijzigen_verhoging"
            }
          }
        ],
        "identifier": [
          {
            "system": "urn:oid:2.16.840.1.113883.2.4.3.11.999.77.16076005.1",
            "value": "MBH_200_wijzigen_verhoging_MA_start"
          }
        ],
        "status": "active",
        "intent": "order",
        "category": [
          {
            "coding": [
              {
                "system": "http://snomed.info/sct",
                "code": "33633005",
                "display": "voorschrijven van geneesmiddel"
              }
            ]
          }
        ],
        "medicationReference": {
          "reference": "urn:uuid:c33f2008-6a95-11ec-0000-020000000000",
          "type": "Medication",
          "display": "FUROSEMIDE 40MG TABLET"
        },
        "subject": {
          "reference": "urn:uuid:c33f1f72-6a95-11ec-0000-020000000000",
          "type": "Patient",
          "display": "Patient, J. de XXX_Luzac"
        },
        "authoredOn": "${DATE, T, D, +0}T08:02:00+02:00",
        "requester": {
          "reference": "urn:uuid:c33f1f90-6a95-11ec-0000-020000000000",
          "type": "PractitionerRole",
          "display": "Healthcare professional (role), Bertine van Doorn, Huisartsen, niet nader gespecificeerd"
        },
        "dosageInstruction": [
          {
            "timing": {
              "repeat": {
                "frequency": 1,
                "period": 1,
                "periodUnit": "d"
              }
            },
            "route": {
              "coding": [
                {
                  "system": "urn:oid:2.16.840.1.113883.2.4.4.9",
                  "code": "9",
                  "display": "Oraal"
                }
              ]
            },
            "doseAndRate": [
              {
                "doseQuantity": {
                  "extension": [
                    {
                      "url": "http://hl7.org/fhir/StructureDefinition/iso21090-PQ-translation",
                      "valueQuantity": {
                        "value": 1,
                        "unit": "stuk",
                        "system": "urn:oid:2.16.840.1.113883.2.4.4.1.900.2",
                        "code": "245"
                      }
                    }
                  ],
                  "value": 1,
                  "unit": "stuk",
                  "system": "http://unitsofmeasure.org",
                  "code": "1"
                }
              }
            ]
          }
        ]
      },
      "request": {
        "method": "POST",
        "url": "MedicationRequest"
      }
    },
    {
      "fullUrl": "urn:uuid:c33f1fea-6a95-11ec-0000-020000000000",
      "resource": {
        "resourceType": "MedicationRequest",
        "id": "mp-DspReq-mp9-MBH200wijzigenverhogingVV",
        "meta": {
          "profile": [
            "http://nictiz.nl/fhir/StructureDefinition/mp-DispenseRequest"
          ],
          "tag": [
            {
              "system": "http://terminology.hl7.org/CodeSystem/common-tags",
              "code": "actionable"
            }
          ]
        },
        "extension": [
          {
            "url": "http://nictiz.nl/fhir/StructureDefinition/ext-PharmaceuticalTreatment.Identifier",
            "valueIdentifier": {
              "system": "urn:oid:2.16.840.1.113883.2.4.3.11.999.77.1.1",
              "value": "MBH_200_wijzigen_verhoging"
            }
          }
        ],
        "identifier": [
          {
            "system": "urn:oid:2.16.840.1.113883.2.4.3.11.999.77.52711000146108.1",
            "value": "MBH_200_wijzigen_verhoging_VV"
          }
        ],
        "status": "active",
        "intent": "order",
        "category": [
          {
            "coding": [
              {
                "system": "http://snomed.info/sct",
                "code": "52711000146108",
                "display": "verstrekkingsverzoek"
              }
            ]
          }
        ],
        "medicationReference": {
          "reference": "urn:uuid:c33f2008-6a95-11ec-0000-020000000000",
          "type": "Medication",
          "display": "FUROSEMIDE 40MG TABLET"
        },
        "subject": {
          "reference": "urn:uuid:c33f1f72-6a95-11ec-0000-020000000000",
          "type": "Patient",
          "display": "Patient, J. de XXX_Luzac"
        },
        "authoredOn": "${DATE, T, D, +0}T08:02:00+02:00",
        "requester": {
          "reference": "urn:uuid:c33f1f90-6a95-11ec-0000-020000000000",
          "type": "PractitionerRole",
          "display": "Healthcare professional (role), Bertine van Doorn, Huisartsen, niet nader gespecificeerd"
        },
        "performer": {
          "reference": "urn:uuid:c33f2062-6a95-11ec-0000-020000000000",
          "type": "Organization",
          "display": "Healthcare provider (organization), Apotheek De Gulle Gaper"
        },
        "basedOn": [
          {
            "type": "MedicationRequest",
            "identifier": {
              "system": "urn:oid:2.16.840.1.113883.2.4.3.11.999.77.16076005.1",
              "value": "MBH_200_wijzigen_verhoging_MA_start"
            },
            "display": "relatie naar medicatieafspraak  met identificatie: MBH_200_wijzigen_verhoging_MA_start || 2.16.840.1.113883.2.4.3.11.999.77.16076005.1"
          }
        ],
        "dispenseRequest": {
          "quantity": {
            "extension": [
              {
                "url": "http://hl7.org/fhir/StructureDefinition/iso21090-PQ-translation",
                "valueQuantity": {
                  "value": 30,
                  "unit": "stuk",
                  "system": "urn:oid:2.16.840.1.113883.2.4.4.1.900.2",
                  "code": "245"
                }
              }
            ],
            "value": 30,
            "unit": "stuk",
            "system": "http://unitsofmeasure.org",
            "code": "1"
          }
        }
      },
      "request": {
        "method": "POST",
        "url": "MedicationRequest"
      }
    },
    {
      "fullUrl": "urn:uuid:c33f1f72-6a95-11ec-0000-020000000000",
      "resource": {
        "resourceType": "Patient",
        "id": "nl-core-Patient-mp9-J-deXXX-Luzac",
        "meta": {
          "profile": [
            "http://nictiz.nl/fhir/StructureDefinition/nl-core-Patient"
          ]
        },
        "identifier": [
          {
            "system": "http://fhir.nl/fhir/NamingSystem/bsn",
            "value": "999900778"
          }
        ],
        "name": [
          {
            "extension": [
              {
                "url": "http://hl7.org/fhir/StructureDefinition/humanname-assembly-order",
                "valueCode": "NL1"
              }
            ],
            "use": "official",
            "text": "J. de XXX_Luzac",
            "family": "de XXX_Luzac",
            "_family": {
              "extension": [
                {
                  "url": "http://hl7.org/fhir/StructureDefinition/humanname-own-prefix",
                  "valueString": "de"
                },
                {
                  "url": "http://hl7.org/fhir/StructureDefinition/humanname-own-name",
                  "valueString": "XXX_Luzac"
                }
              ]
            },
            "given": [
              "J."
            ],
            "_given": [
              {
                "extension": [
                  {
                    "url": "http://hl7.org/fhir/StructureDefinition/iso21090-EN-qualifier",
                    "valueCode": "IN"
                  }
                ]
              }
            ]
          }
        ],
        "gender": "female",
        "_gender": {
          "extension": [
            {
              "url": "http://nictiz.nl/fhir/StructureDefinition/ext-CodeSpecification",
              "valueCodeableConcept": {
                "coding": [
                  {
                    "system": "http://terminology.hl7.org/CodeSystem/v3-AdministrativeGender",
                    "code": "F",
                    "display": "Vrouw"
                  }
                ]
              }
            }
          ]
        },
        "birthDate": "1985-10-24"
      },
      "request": {
        "method": "POST",
        "url": "Patient"
      }
    },
    {
      "fullUrl": "urn:uuid:c33f1f90-6a95-11ec-0000-020000000000",
      "resource": {
        "resourceType": "PractitionerRole",
        "id": "nl-core-HPrf-PracRol-mp9-000001112-0100-00001111",
        "meta": {
          "profile": [
            "http://nictiz.nl/fhir/StructureDefinition/nl-core-HealthProfessional-PractitionerRole"
          ]
        },
        "practitioner": {
          "reference": "urn:uuid:c33f1fae-6a95-11ec-0000-020000000000",
          "type": "Practitioner",
          "display": "Healthcare professional (person), Bertine van Doorn"
        },
        "organization": {
          "reference": "urn:uuid:c33f2026-6a95-11ec-0000-020000000000",
          "type": "Organization",
          "display": "Healthcare provider (organization), Huisartsenpraktijk Pulver & Partners"
        },
        "specialty": [
          {
            "coding": [
              {
                "system": "urn:oid:2.16.840.1.113883.2.4.6.7",
                "version": "2020-10-23T00:00:00",
                "code": "0100",
                "display": "Huisartsen, niet nader gespecificeerd"
              }
            ]
          }
        ],
        "telecom": [
          {
            "system": "phone",
            "value": "1634534000",
            "use": "work"
          }
        ]
      },
      "request": {
        "method": "POST",
        "url": "PractitionerRole"
      }
    },
    {
      "fullUrl": "urn:uuid:c33f1fae-6a95-11ec-0000-020000000000",
      "resource": {
        "resourceType": "Practitioner",
        "id": "nl-core-HPrf-Prac-mp9-2165281100731-000001112",
        "meta": {
          "profile": [
            "http://nictiz.nl/fhir/StructureDefinition/nl-core-HealthProfessional-Practitioner"
          ]
        },
        "identifier": [
          {
            "system": "http://fhir.nl/fhir/NamingSystem/uzi-nr-pers",
            "value": "000001112"
          }
        ],
        "name": [
          {
            "use": "official",
            "text": "Bertine van Doorn",
            "family": "van Doorn",
            "_family": {
              "extension": [
                {
                  "url": "http://hl7.org/fhir/StructureDefinition/humanname-own-prefix",
                  "valueString": "van"
                },
                {
                  "url": "http://hl7.org/fhir/StructureDefinition/humanname-own-name",
                  "valueString": "Doorn"
                }
              ]
            },
            "given": [
              "Bertine"
            ],
            "_given": [
              {
                "extension": [
                  {
                    "url": "http://hl7.org/fhir/StructureDefinition/iso21090-EN-qualifier",
                    "valueCode": "BR"
                  }
                ]
              }
            ]
          }
        ],
        "telecom": [
          {
            "system": "phone",
            "value": "1634534000",
            "use": "work"
          }
        ]
      },
      "request": {
        "method": "POST",
        "url": "Practitioner"
      }
    },
    {
      "fullUrl": "urn:uuid:c33f2026-6a95-11ec-0000-020000000000",
      "resource": {
        "resourceType": "Organization",
        "id": "nl-core-HPrv-Org-mp9-2165281100733-00001111",
        "meta": {
          "profile": [
            "http://nictiz.nl/fhir/StructureDefinition/nl-core-HealthcareProvider-Organization"
          ]
        },
        "identifier": [
          {
            "system": "http://fhir.nl/fhir/NamingSystem/ura",
            "value": "00001111"
          }
        ],
        "name": "Huisartsenpraktijk Pulver & Partners",
        "address": [
          {
            "extension": [
              {
                "url": "http://nictiz.nl/fhir/StructureDefinition/ext-AddressInformation.AddressType",
                "valueCodeableConcept": {
                  "coding": [
                    {
                      "system": "http://terminology.hl7.org/CodeSystem/v3-AddressUse",
                      "code": "WP",
                      "display": "Werkadres"
                    }
                  ]
                }
              }
            ],
            "use": "work",
            "line": [
              "Dorpsstraat 1"
            ],
            "_line": [
              {
                "extension": [
                  {
                    "url": "http://hl7.org/fhir/StructureDefinition/iso21090-ADXP-streetName",
                    "valueString": "Dorpsstraat"
                  },
                  {
                    "url": "http://hl7.org/fhir/StructureDefinition/iso21090-ADXP-houseNumber",
                    "valueString": "1"
                  }
                ]
              }
            ],
            "city": "Ons Dorp",
            "postalCode": "1234AA"
          }
        ]
      },
      "request": {
        "method": "POST",
        "url": "Organization"
      }
    },
    {
      "fullUrl": "urn:uuid:c33f2062-6a95-11ec-0000-020000000000",
      "resource": {
        "resourceType": "Organization",
        "id": "nl-core-HPrv-Org-mp9-2165281100733-01236578",
        "meta": {
          "profile": [
            "http://nictiz.nl/fhir/StructureDefinition/nl-core-HealthcareProvider-Organization"
          ]
        },
        "identifier": [
          {
            "system": "http://fhir.nl/fhir/NamingSystem/ura",
            "value": "01236578"
          }
        ],
        "name": "Apotheek De Gulle Gaper"
      },
      "request": {
        "method": "POST",
        "url": "Organization"
      }
    },
    {
      "fullUrl": "urn:uuid:c33f2008-6a95-11ec-0000-020000000000",
      "resource": {
        "resourceType": "Medication",
        "id": "nl-core-PhPrd-mp9-216840111388324410-5967",
        "meta": {
          "profile": [
            "http://nictiz.nl/fhir/StructureDefinition/nl-core-PharmaceuticalProduct"
          ]
        },
        "code": {
          "coding": [
            {
              "system": "urn:oid:2.16.840.1.113883.2.4.4.10",
              "code": "5967",
              "display": "FUROSEMIDE 40MG TABLET",
              "userSelected": true
            },
            {
              "system": "urn:oid:2.16.840.1.113883.2.4.4.1",
              "code": "16810",
              "display": "FUROSEMIDE 40MG TABLET"
            }
          ],
          "text": "FUROSEMIDE 40MG TABLET"
        }
      },
      "request": {
        "method": "POST",
        "url": "Medication"
      }
    }
  ]
}