<?xml-model href="http://hl7.org/fhir/STU3/bundle.sch" type="application/xml" schematypens="http://purl.oclc.org/dsdl/schematron"?><Bundle xmlns="http://hl7.org/fhir" xmlns:xsi="http://www.w3.org/2001/XMLSchema-instance" xsi:schemaLocation="http://hl7.org/fhir http://hl7.org/fhir/STU3/bundle.xsd">
  <id value="MO-van-de-XXX-Stijl"/>
  <meta>
    <profile value="http://nictiz.nl/fhir/StructureDefinition/Bundle-MedicationOverview"/>
  </meta>
  <type value="searchset"/>
  <total value="1"/>
  <link>
    <relation value="self"/>
    <url value="http://dummy.nictiz.nl/dummyquery"/>
  </link>
  <entry>
    <fullUrl value="urn:uuid:c33f1d72-6a95-11ec-0000-020000000000"/>
    <resource>
      <List>
        <meta>
          <profile value="http://nictiz.nl/fhir/StructureDefinition/MedicationOverview"/>
        </meta>
        <text>
          <status value="extensions"/>
          <div xmlns="http://www.w3.org/1999/xhtml">
            <table>
              <caption>Lijst. Subject: F. van de XXX_Stijl. Status: actueel</caption>
              <tbody>
                <tr>
                  <th>Wijze</th>
                  <td>Snapshot-kopie</td>
                </tr>
                <tr>
                  <th>Gemaakt</th>
                  <td>${DATE, T, D, +0}</td>
                </tr>
              </tbody>
            </table>
          </div>
        </text>
        <extension url="http://nictiz.nl/fhir/StructureDefinition/MedicationOverview-Verification">
          <extension url="VerificationPatient">
            <valueBoolean value="false"/>
          </extension>
          <extension url="VerificationHealthProfessional">
            <valueBoolean value="false"/>
          </extension>
        </extension>
        <status value="current"/>
        <mode value="snapshot"/>
        <code>
          <coding>
            <system value="http://snomed.info/sct"/>
            <code value="11181000146103"/>
            <display value="Actual medication overview (record artifact)"/>
          </coding>
          <text value="Medicatieoverzicht"/>
        </code>
        <subject>
          <reference value="urn:uuid:c33f1d5b-6a95-11ec-0000-020000000000"/>
          <display value="F. van de XXX_Stijl"/>
        </subject>
        <date value="${DATE, T, D, +0}"/>
        <source>
          <extension url="http://nictiz.nl/fhir/StructureDefinition/MedicationOverview-SourceOrganization">
            <valueReference>
              <reference value="urn:oid:2.16.528.1.1007.3.3.1111"/>
              <display value="Huisartsenpraktijk Pulver &amp; Partners"/>
            </valueReference>
          </extension>
          <display value="Huisartsenpraktijk Pulver &amp; Partners"/>
        </source>
      </List>
    </resource>
    <search>
      <mode value="match"/>
    </search>
  </entry>
  <entry>
    <fullUrl value="urn:uuid:c33f1d5b-6a95-11ec-0000-020000000000"/>
    <resource>
      <Patient>
        <meta>
          <profile value="http://fhir.nl/fhir/StructureDefinition/nl-core-patient"/>
        </meta>
        <text>
          <status value="extensions"/>
          <div xmlns="http://www.w3.org/1999/xhtml">
            <div>Id <i>afgeschermd (ontbrekend gegeven)</i> (BSN), F. van de XXX_Stijl, Vrouw, 10 augustus 1954</div>
          </div>
        </text>
        <identifier>
          <system value="http://fhir.nl/fhir/NamingSystem/bsn"/>
          <value>
            <extension url="http://hl7.org/fhir/StructureDefinition/data-absent-reason">
              <valueCode value="masked"/>
            </extension>
          </value>
        </identifier>
        <name>
          <extension url="http://hl7.org/fhir/StructureDefinition/humanname-assembly-order">
            <valueCode value="NL1"/>
          </extension>
          <family value="van de XXX_Stijl">
            <extension url="http://hl7.org/fhir/StructureDefinition/humanname-own-prefix">
              <valueString value="van de"/>
            </extension>
            <extension url="http://hl7.org/fhir/StructureDefinition/humanname-own-name">
              <valueString value="XXX_Stijl"/>
            </extension>
          </family>
          <given value="F.">
            <extension url="http://hl7.org/fhir/StructureDefinition/iso21090-EN-qualifier">
              <valueCode value="IN"/>
            </extension>
          </given>
        </name>
        <gender value="female">
          <extension url="http://nictiz.nl/fhir/StructureDefinition/code-specification">
            <valueCodeableConcept>
              <coding>
                <system value="http://hl7.org/fhir/v3/AdministrativeGender"/>
                <code value="F"/>
                <display value="Vrouw"/>
              </coding>
            </valueCodeableConcept>
          </extension>
        </gender>
        <birthDate value="1954-08-10"/>
      </Patient>
    </resource>
    <search>
      <mode value="include"/>
    </search>
  </entry>
  <entry>
    <fullUrl value="urn:oid:2.16.528.1.1007.3.3.1111"/>
    <resource>
      <Organization>
        <meta>
          <profile value="http://fhir.nl/fhir/StructureDefinition/nl-core-organization"/>
        </meta>
        <text>
          <status value="extensions"/>
          <div xmlns="http://www.w3.org/1999/xhtml">
            <table>
              <caption>Organisatie. Id: 00001111 (URA)</caption>
              <tbody>
                <tr>
                  <th>Naam</th>
                  <td>Huisartsenpraktijk Pulver &amp; Partners</td>
                </tr>
                <tr>
                  <th>Contactgegevens</th>
                  <td>
                    <a href="tel:099-12345678">099-12345678</a> (Tel)</td>
                </tr>
                <tr>
                  <th>Adres</th>
                  <td>Dorpsstraat 1, 1234AA Ons Dorp (WP)</td>
                </tr>
              </tbody>
            </table>
          </div>
        </text>
        <identifier>
          <system value="http://fhir.nl/fhir/NamingSystem/ura"/>
          <value value="00001111"/>
        </identifier>
        <name value="Huisartsenpraktijk Pulver &amp; Partners"/>
        <telecom>
          <system value="phone"/>
          <value value="099-12345678"/>
        </telecom>
        <address>
          <extension url="http://nictiz.nl/fhir/StructureDefinition/zib-AddressInformation-AddressType">
            <valueCodeableConcept>
              <coding>
                <system value="http://hl7.org/fhir/v3/AddressUse"/>
                <code value="WP"/>
                <display value="Werkadres"/>
              </coding>
            </valueCodeableConcept>
          </extension>
          <use value="work"/>
          <line value="Dorpsstraat 1">
            <extension url="http://hl7.org/fhir/StructureDefinition/iso21090-ADXP-streetName">
              <valueString value="Dorpsstraat"/>
            </extension>
            <extension url="http://hl7.org/fhir/StructureDefinition/iso21090-ADXP-houseNumber">
              <valueString value="1"/>
            </extension>
          </line>
          <city value="Ons Dorp"/>
          <postalCode value="1234AA"/>
        </address>
      </Organization>
    </resource>
    <search>
      <mode value="include"/>
    </search>
  </entry>
</Bundle>
