<Bundle xmlns="http://hl7.org/fhir">
  <id value="av-mp-va-kwal-script1-v30"/>
  <meta>
    <profile value="http://nictiz.nl/fhir/StructureDefinition/mp-MedicationPrescriptionProcessing-Bundle"/>
  </meta>
  <type value="transaction"/>
  <entry>
    <fullUrl value="urn:uuid:595dc1a8-6b54-11ec-0000-020000000000"/>
    <resource>
      <MedicationDispense>
        <meta>
          <profile value="http://nictiz.nl/fhir/StructureDefinition/mp-AdministrationAgreement"/>
          <tag>
            <system value="http://terminology.hl7.org/CodeSystem/common-tags"/>
            <code value="actionable"/>
          </tag>
        </meta>
        <text>
          <status value="extensions"/>
          <div xmlns="http://www.w3.org/1999/xhtml">
            <table>
              <caption>MedicationDispense. Subject: Patient, P. XXX_Schut. Id: MBH_300_SCRIPT1_TA (urn:oid:2.16.840.1.113883.2.4.3.11.999.77.422037009.1), Categorie: <span title="toedieningsafspraak (422037009 - SNOMED CT)">toedieningsafspraak</span>, Status: onbekend<span style="display: block;">Uitvoerende: Healthcare provider (organization), Apotheek De Gulle Gaper</span>
              </caption>
              <tbody>
                <tr>
                  <th>Gebaseerd op</th>
                  <td>relatie naar medicatieafspraak met identificatie: MBH_300_SCRIPT1_MA || 2.16.840.1.113883.2.4.3.11.999.77.16076005.1 (Id: MBH_300_SCRIPT1_MA (urn:oid:2.16.840.1.113883.2.4.3.11.999.77.16076005.1))</td>
                </tr>
                <tr>
                  <th>Medicatie</th>
                  <td>ECANSYA TABLET FILMOMHULD 500MG</td>
                </tr>
                <tr>
                  <th>Doseerinstructie</th>
                  <td>
                    <div>Timing: <div>14 dag09:00:00, 21:00:00. Tijden zo precies mogelijk aanhouden</div>
                    </div>
                    <div>Toedieningsweg: <span title="Oraal (9 - G-Standaard thesaurus subtabel 0007)">Oraal</span>
                    </div>
                    <div>Dosering: doseAndRate TODO</div>
                  </td>
                </tr>
              </tbody>
            </table>
          </div>
        </text>
        <extension url="http://nictiz.nl/fhir/StructureDefinition/ext-AdministrationAgreement.AdministrationAgreementDateTime">
          <valueDateTime value="${DATE, T, D, +0}T08:30:00+02:00"/>
        </extension>
        <extension url="http://nictiz.nl/fhir/StructureDefinition/ext-RenderedDosageInstruction">
          <valueString value="Vanaf T, gedurende 21 weken, cyclus van 21 dagen: steeds gedurende 14 dagen elke dag om 09:00 en 21:00 5 stuks - let op, tijden exact aanhouden, Oraal"/>
        </extension>
        <extension url="http://nictiz.nl/fhir/StructureDefinition/ext-TimeInterval.Period">
          <valuePeriod>
            <extension url="http://nictiz.nl/fhir/StructureDefinition/ext-TimeInterval.Duration">
              <valueDuration>
                <value value="21"/>
                <unit value="week"/>
                <system value="http://unitsofmeasure.org"/>
                <code value="wk"/>
              </valueDuration>
            </extension>
            <start value="${DATE, T, D, +0}T00:00:00+02:00"/>
          </valuePeriod>
        </extension>
        <extension url="http://nictiz.nl/fhir/StructureDefinition/ext-PharmaceuticalTreatment.Identifier">
          <valueIdentifier>
            <system value="urn:oid:2.16.840.1.113883.2.4.3.11.999.77.1.1"/>
            <value value="MBH_300_SCRIPT1"/>
          </valueIdentifier>
        </extension>
        <modifierExtension url="http://nictiz.nl/fhir/StructureDefinition/ext-InstructionsForUse.RepeatPeriodCyclicalSchedule">
          <valueDuration>
            <value value="21"/>
            <unit value="dag"/>
            <system value="http://unitsofmeasure.org"/>
            <code value="d"/>
          </valueDuration>
        </modifierExtension>
        <identifier>
          <system value="urn:oid:2.16.840.1.113883.2.4.3.11.999.77.422037009.1"/>
          <value value="MBH_300_SCRIPT1_TA"/>
        </identifier>
        <status value="unknown"/>
        <category>
          <coding>
            <system value="http://snomed.info/sct"/>
            <code value="422037009"/>
            <display value="toedieningsafspraak"/>
          </coding>
        </category>
        <medicationReference>
          <reference value="urn:uuid:1a726d1d-6b67-11ec-0000-020000000000"/>
          <type value="Medication"/>
          <display value="ECANSYA TABLET FILMOMHULD 500MG"/>
        </medicationReference>
        <subject>
          <reference value="urn:uuid:3ae2f678-6b63-11ec-0000-020000000000"/>
          <type value="Patient"/>
          <display value="Patient, P. XXX_Schut"/>
        </subject>
        <performer>
          <actor>
            <reference value="urn:uuid:98d231d8-6b0c-11ec-0000-020000000000"/>
            <type value="Organization"/>
            <display value="Healthcare provider (organization), Apotheek De Gulle Gaper"/>
          </actor>
        </performer>
        <authorizingPrescription>
          <type value="MedicationRequest"/>
          <identifier>
            <system value="urn:oid:2.16.840.1.113883.2.4.3.11.999.77.16076005.1"/>
            <value value="MBH_300_SCRIPT1_MA"/>
          </identifier>
          <display value="relatie naar medicatieafspraak met identificatie: MBH_300_SCRIPT1_MA || 2.16.840.1.113883.2.4.3.11.999.77.16076005.1"/>
        </authorizingPrescription>
        <dosageInstruction>
          <timing>
            <repeat>
              <extension url="http://hl7.org/fhir/StructureDefinition/timing-exact">
                <valueBoolean value="true"/>
              </extension>
              <boundsDuration>
                <value value="14"/>
                <unit value="dag"/>
                <system value="http://unitsofmeasure.org"/>
                <code value="d"/>
              </boundsDuration>
              <timeOfDay value="09:00:00"/>
              <timeOfDay value="21:00:00"/>
            </repeat>
          </timing>
          <route>
            <coding>
              <system value="urn:oid:2.16.840.1.113883.2.4.4.9"/>
              <code value="9"/>
              <display value="Oraal"/>
            </coding>
          </route>
          <doseAndRate>
            <doseQuantity>
              <extension url="http://hl7.org/fhir/StructureDefinition/iso21090-PQ-translation">
                <valueQuantity>
                  <value value="5"/>
                  <unit value="stuk"/>
                  <system value="urn:oid:2.16.840.1.113883.2.4.4.1.900.2"/>
                  <code value="245"/>
                </valueQuantity>
              </extension>
              <value value="5"/>
              <unit value="stuk"/>
              <system value="http://unitsofmeasure.org"/>
              <code value="1"/>
            </doseQuantity>
          </doseAndRate>
        </dosageInstruction>
      </MedicationDispense>
    </resource>
    <request>
      <method value="POST"/>
      <url value="MedicationDispense"/>
    </request>
  </entry>
  <entry>
    <fullUrl value="urn:uuid:b40f83dd-6b1a-11ec-0000-020000000000"/>
    <resource>
      <MedicationDispense>
        <meta>
          <profile value="http://nictiz.nl/fhir/StructureDefinition/mp-MedicationDispense"/>
          <tag>
            <system value="http://terminology.hl7.org/CodeSystem/common-tags"/>
            <code value="actionable"/>
          </tag>
        </meta>
        <text>
          <status value="extensions"/>
          <div xmlns="http://www.w3.org/1999/xhtml">
            <table>
              <caption>MedicationDispense. Subject: Patient, P. XXX_Schut. Id: MBH_300_SCRIPT1_MVE (urn:oid:2.16.840.1.113883.2.4.3.11.999.77.373784005.1), Categorie: <span title="verstrekken van medicatie (373784005 - SNOMED CT)">verstrekken van medicatie</span>, Status: voltooid<span style="display: block;">Uitvoerende: Healthcare provider (organization), Apotheek De Gulle Gaper</span>
              </caption>
              <tbody>
                <tr>
                  <th>Gebaseerd op</th>
                  <td>relatie naar verstrekkingsverzoek met identificatie: MBH_300_SCRIPT1_VV || 2.16.840.1.113883.2.4.3.11.999.77.52711000146108.1 (Id: MBH_300_SCRIPT1_VV (urn:oid:2.16.840.1.113883.2.4.3.11.999.77.52711000146108.1))</td>
                </tr>
                <tr>
                  <th>Medicatie</th>
                  <td>ECANSYA TABLET FILMOMHULD 500MG</td>
                </tr>
                <tr>
                  <th>Hoeveelheid</th>
                  <td>140 stuk</td>
                </tr>
                <tr>
                  <th>Dagen voorraad</th>
                  <td>2 week</td>
                </tr>
                <tr>
                  <th>Datum overhandigd</th>
                  <td>${DATE, T, D, +0}T08:30:00+02:00</td>
                </tr>
              </tbody>
            </table>
          </div>
        </text>
        <extension url="http://nictiz.nl/fhir/StructureDefinition/ext-PharmaceuticalTreatment.Identifier">
          <valueIdentifier>
            <system value="urn:oid:2.16.840.1.113883.2.4.3.11.999.77.1.1"/>
            <value value="MBH_300_SCRIPT1"/>
          </valueIdentifier>
        </extension>
        <identifier>
          <system value="urn:oid:2.16.840.1.113883.2.4.3.11.999.77.373784005.1"/>
          <value value="MBH_300_SCRIPT1_MVE"/>
        </identifier>
        <status value="completed"/>
        <category>
          <coding>
            <system value="http://snomed.info/sct"/>
            <code value="373784005"/>
            <display value="verstrekken van medicatie"/>
          </coding>
        </category>
        <medicationReference>
          <reference value="urn:uuid:1a726d1d-6b67-11ec-0000-020000000000"/>
          <type value="Medication"/>
          <display value="ECANSYA TABLET FILMOMHULD 500MG"/>
        </medicationReference>
        <subject>
          <reference value="urn:uuid:3ae2f678-6b63-11ec-0000-020000000000"/>
          <type value="Patient"/>
          <display value="Patient, P. XXX_Schut"/>
        </subject>
        <performer>
          <actor>
            <reference value="urn:uuid:98d231d8-6b0c-11ec-0000-020000000000"/>
            <type value="Organization"/>
            <display value="Healthcare provider (organization), Apotheek De Gulle Gaper"/>
          </actor>
        </performer>
        <authorizingPrescription>
          <type value="MedicationRequest"/>
          <identifier>
            <system value="urn:oid:2.16.840.1.113883.2.4.3.11.999.77.52711000146108.1"/>
            <value value="MBH_300_SCRIPT1_VV"/>
          </identifier>
          <display value="relatie naar verstrekkingsverzoek met identificatie: MBH_300_SCRIPT1_VV || 2.16.840.1.113883.2.4.3.11.999.77.52711000146108.1"/>
        </authorizingPrescription>
        <quantity>
          <extension url="http://hl7.org/fhir/StructureDefinition/iso21090-PQ-translation">
            <valueQuantity>
              <value value="140"/>
              <unit value="stuk"/>
              <system value="urn:oid:2.16.840.1.113883.2.4.4.1.900.2"/>
              <code value="245"/>
            </valueQuantity>
          </extension>
          <value value="140"/>
          <unit value="stuk"/>
          <system value="http://unitsofmeasure.org"/>
          <code value="1"/>
        </quantity>
        <daysSupply>
          <value value="2"/>
          <unit value="week"/>
          <system value="http://unitsofmeasure.org"/>
          <code value="wk"/>
        </daysSupply>
        <whenHandedOver value="${DATE, T, D, +0}T08:30:00+02:00"/>
      </MedicationDispense>
    </resource>
    <request>
      <method value="POST"/>
      <url value="MedicationDispense"/>
    </request>
  </entry>
  <entry>
    <fullUrl value="urn:uuid:3ae2f678-6b63-11ec-0000-020000000000"/>
    <resource>
      <Patient>
        <meta>
          <profile value="http://nictiz.nl/fhir/StructureDefinition/nl-core-Patient"/>
        </meta>
        <text>
          <status value="extensions"/>
          <div xmlns="http://www.w3.org/1999/xhtml">
            <div>Id 999901059 (BSN), <span title="Naamsamenstelling: Eigennaam">P. XXX_Schut</span>, Vrouw, 17 november 1985</div>
          </div>
        </text>
        <identifier>
          <system value="http://fhir.nl/fhir/NamingSystem/bsn"/>
          <value value="999901059"/>
        </identifier>
        <name>
          <extension url="http://hl7.org/fhir/StructureDefinition/humanname-assembly-order">
            <valueCode value="NL1"/>
          </extension>
          <use value="official"/>
          <text value="P. XXX_Schut"/>
          <family value="XXX_Schut">
            <extension url="http://hl7.org/fhir/StructureDefinition/humanname-own-name">
              <valueString value="XXX_Schut"/>
            </extension>
          </family>
          <given value="P.">
            <extension url="http://hl7.org/fhir/StructureDefinition/iso21090-EN-qualifier">
              <valueCode value="IN"/>
            </extension>
          </given>
        </name>
        <gender value="female">
          <extension url="http://nictiz.nl/fhir/StructureDefinition/ext-CodeSpecification">
            <valueCodeableConcept>
              <coding>
                <system value="http://terminology.hl7.org/CodeSystem/v3-AdministrativeGender"/>
                <code value="F"/>
                <display value="Vrouw"/>
              </coding>
            </valueCodeableConcept>
          </extension>
        </gender>
        <birthDate value="1985-11-17"/>
      </Patient>
    </resource>
    <request>
      <method value="POST"/>
      <url value="Patient"/>
    </request>
  </entry>
  <entry>
    <fullUrl value="urn:uuid:98d231d8-6b0c-11ec-0000-020000000000"/>
    <resource>
      <Organization>
        <meta>
          <profile value="http://nictiz.nl/fhir/StructureDefinition/nl-core-HealthcareProvider-Organization"/>
        </meta>
        <text>
          <status value="extensions"/>
          <div xmlns="http://www.w3.org/1999/xhtml">
            <table>
              <caption>Organisatie. Id: 01236578 (URA)</caption>
              <tbody>
                <tr>
                  <th>Naam</th>
                  <td>Apotheek De Gulle Gaper</td>
                </tr>
              </tbody>
            </table>
          </div>
        </text>
        <identifier>
          <system value="http://fhir.nl/fhir/NamingSystem/ura"/>
          <value value="01236578"/>
        </identifier>
        <name value="Apotheek De Gulle Gaper"/>
      </Organization>
    </resource>
    <request>
      <method value="POST"/>
      <url value="Organization"/>
    </request>
  </entry>
  <entry>
    <fullUrl value="urn:uuid:1a726d1d-6b67-11ec-0000-020000000000"/>
    <resource>
      <Medication>
        <meta>
          <profile value="http://nictiz.nl/fhir/StructureDefinition/mp-PharmaceuticalProduct"/>
        </meta>
        <text>
          <status value="extensions"/>
          <div xmlns="http://www.w3.org/1999/xhtml">
            <table>
              <tbody>
                <tr>
                  <th>Code</th>
                  <td>
                    <span title="ECANSYA TABLET FILMOMHULD 500MG (3060195 - G-Standaard HPK)">ECANSYA TABLET FILMOMHULD 500MG</span>
                  </td>
                </tr>
              </tbody>
            </table>
          </div>
        </text>
        <code>
          <coding>
            <system value="urn:oid:2.16.840.1.113883.2.4.4.7"/>
            <code value="3060195"/>
            <display value="ECANSYA TABLET FILMOMHULD 500MG"/>
            <userSelected value="true"/>
          </coding>
          <coding>
            <system value="urn:oid:2.16.840.1.113883.2.4.4.10"/>
            <code value="59366"/>
            <display value="CAPECITABINE TABLET FO 500MG"/>
          </coding>
          <coding>
            <system value="urn:oid:2.16.840.1.113883.2.4.4.1"/>
            <code value="112984"/>
            <display value="CAPECITABINE TABLET FO 500MG"/>
          </coding>
          <text value="ECANSYA TABLET FILMOMHULD 500MG"/>
        </code>
      </Medication>
    </resource>
    <request>
      <method value="POST"/>
      <url value="Medication"/>
    </request>
  </entry>
</Bundle>
