{
  "resourceType": "Bundle",
  "id": "av-mp-va-kwal-script8-v30",
  "meta": {
    "profile": [ "http://nictiz.nl/fhir/StructureDefinition/mp-MedicationPrescriptionProcessing-Bundle" ]
  },
  "type": "transaction",
  "entry": [ {
    "fullUrl": "urn:uuid:92d14f0d-6ac2-11ec-0000-020000000000",
    "resource": {
      "resourceType": "MedicationDispense",
      "meta": {
        "profile": [ "http://nictiz.nl/fhir/StructureDefinition/mp-AdministrationAgreement" ],
        "tag": [ {
          "system": "http://terminology.hl7.org/CodeSystem/common-tags",
          "code": "actionable"
        } ]
      },
      "text": {
        "status": "extensions",
        "div": "<div xmlns=\"http://www.w3.org/1999/xhtml\">\n            <table>\n              <caption>MedicationDispense. Subject: Patient, J. XXX_Laan. Id: MBH_300_SCRIPT8_TA (urn:oid:2.16.840.1.113883.2.4.3.11.999.77.422037009.1), Categorie: <span title=\"toedieningsafspraak (422037009 - SNOMED CT)\">toedieningsafspraak</span>, Status: onbekend<span style=\"display: block;\">Uitvoerende: Healthcare provider (organization), Apotheek De Gulle Gaper</span>\n              </caption>\n              <tbody>\n                <tr>\n                  <th>Gebaseerd op</th>\n                  <td>relatie naar medicatieafspraak met identificatie: MBH_300_SCRIPT8_MA || 2.16.840.1.113883.2.4.3.11.999.77.16076005.1 (Id: MBH_300_SCRIPT8_MA (urn:oid:2.16.840.1.113883.2.4.3.11.999.77.16076005.1))</td>\n                </tr>\n                <tr>\n                  <th>Medicatie</th>\n                  <td>FRAXIPARINE FORTE INJV 11400IE/0,6ML(19000IE/ML)WW</td>\n                </tr>\n                <tr>\n                  <th>Doseerinstructie</th>\n                  <td>\n                    <div>Timing: <div>12:00:00</div>\n                    </div>\n                    <div>Toedieningsweg: <span title=\"subcutaan (21 - G-Standaard thesaurus subtabel 0007)\">subcutaan</span>\n                    </div>\n                    <div>Dosering: doseAndRate TODO</div>\n                  </td>\n                </tr>\n              </tbody>\n            </table>\n          </div>"
      },
      "extension": [ {
        "url": "http://nictiz.nl/fhir/StructureDefinition/ext-RegistrationDateTime",
        "valueDateTime": "${DATE, T, D, -1}T10:10:00+02:00"
      }, {
        "url": "http://nictiz.nl/fhir/StructureDefinition/ext-RenderedDosageInstruction",
        "valueString": "Wordt gegenereerd"
      }, {
        "url": "http://nictiz.nl/fhir/StructureDefinition/ext-TimeInterval.Period",
        "valuePeriod": {
          "start": "${DATE, T, D, -1}T00:00:00+02:00",
          "end": "${DATE, T, D, +3}T23:59:59+02:00"
        }
      }, {
        "url": "http://nictiz.nl/fhir/StructureDefinition/ext-PharmaceuticalTreatment.Identifier",
        "valueIdentifier": {
          "system": "urn:oid:2.16.840.1.113883.2.4.3.11.999.77.1.1",
          "value": "MBH_300_SCRIPT8"
        }
      } ],
      "identifier": [ {
        "system": "urn:oid:2.16.840.1.113883.2.4.3.11.999.77.422037009.1",
        "value": "MBH_300_SCRIPT8_TA"
      } ],
      "status": "unknown",
      "category": {
        "coding": [ {
          "system": "http://snomed.info/sct",
          "code": "422037009",
          "display": "toedieningsafspraak"
        } ]
      },
      "medicationReference": {
        "reference": "urn:uuid:119dd11d-6abe-11ec-0000-020000000000",
        "type": "Medication",
        "display": "FRAXIPARINE FORTE INJV 11400IE/0,6ML(19000IE/ML)WW"
      },
      "subject": {
        "reference": "urn:uuid:ab71cf1e-6b3e-11ec-0000-020000000000",
        "type": "Patient",
        "display": "Patient, J. XXX_Laan"
      },
      "performer": [ {
        "actor": {
          "reference": "urn:uuid:10079464-6b64-11ec-0000-020000000000",
          "type": "Organization",
          "display": "Healthcare provider (organization), Apotheek De Gulle Gaper"
        }
      } ],
      "authorizingPrescription": [ {
        "type": "MedicationRequest",
        "identifier": {
          "system": "urn:oid:2.16.840.1.113883.2.4.3.11.999.77.16076005.1",
          "value": "MBH_300_SCRIPT8_MA"
        },
        "display": "relatie naar medicatieafspraak met identificatie: MBH_300_SCRIPT8_MA || 2.16.840.1.113883.2.4.3.11.999.77.16076005.1"
      } ],
      "dosageInstruction": [ {
        "timing": {
          "repeat": {
            "timeOfDay": [ "12:00:00" ]
          }
        },
        "route": {
          "coding": [ {
            "system": "urn:oid:2.16.840.1.113883.2.4.4.9",
            "code": "21",
            "display": "subcutaan"
          } ]
        },
        "doseAndRate": [ {
          "doseQuantity": {
            "extension": [ {
              "url": "http://hl7.org/fhir/StructureDefinition/iso21090-PQ-translation",
              "valueQuantity": {
                "value": 0.6,
                "unit": "milliliter",
                "system": "urn:oid:2.16.840.1.113883.2.4.4.1.900.2",
                "code": "233"
              }
            } ],
            "value": 0.6,
            "unit": "milliliter",
            "system": "http://unitsofmeasure.org",
            "code": "ml"
          }
        } ]
      } ]
    },
    "request": {
      "method": "POST",
      "url": "MedicationDispense"
    }
  }, {
    "fullUrl": "urn:uuid:7ccc99a7-6b36-11ec-0000-020000000000",
    "resource": {
      "resourceType": "MedicationDispense",
      "meta": {
        "profile": [ "http://nictiz.nl/fhir/StructureDefinition/mp-MedicationDispense" ],
        "tag": [ {
          "system": "http://terminology.hl7.org/CodeSystem/common-tags",
          "code": "actionable"
        } ]
      },
      "text": {
        "status": "extensions",
        "div": "<div xmlns=\"http://www.w3.org/1999/xhtml\">\n            <table>\n              <caption>MedicationDispense. Subject: Patient, J. XXX_Laan. Id: MBH_300_SCRIPT8_MVE (urn:oid:2.16.840.1.113883.2.4.3.11.999.77.373784005.1), Categorie: <span title=\"verstrekken van medicatie (373784005 - SNOMED CT)\">verstrekken van medicatie</span>, Status: voltooid<span style=\"display: block;\">Uitvoerende: Healthcare provider (organization), Apotheek De Gulle Gaper</span>\n              </caption>\n              <tbody>\n                <tr>\n                  <th>Gebaseerd op</th>\n                  <td>relatie naar verstrekkingsverzoek met identificatie: MBH_300_SCRIPT8_VV || 2.16.840.1.113883.2.4.3.11.999.77.52711000146108.1 (Id: MBH_300_SCRIPT8_VV (urn:oid:2.16.840.1.113883.2.4.3.11.999.77.52711000146108.1))</td>\n                </tr>\n                <tr>\n                  <th>Medicatie</th>\n                  <td>FRAXIPARINE FORTE INJV 11400IE/0,6ML(19000IE/ML)WW</td>\n                </tr>\n                <tr>\n                  <th>Hoeveelheid</th>\n                  <td>5 stuk</td>\n                </tr>\n                <tr>\n                  <th>Datum overhandigd</th>\n                  <td>${DATE, T, D, -1}T10:10:00+02:00</td>\n                </tr>\n              </tbody>\n            </table>\n          </div>"
      },
      "extension": [ {
        "url": "http://nictiz.nl/fhir/StructureDefinition/ext-PharmaceuticalTreatment.Identifier",
        "valueIdentifier": {
          "system": "urn:oid:2.16.840.1.113883.2.4.3.11.999.77.1.1",
          "value": "MBH_300_SCRIPT8"
        }
      } ],
      "identifier": [ {
        "system": "urn:oid:2.16.840.1.113883.2.4.3.11.999.77.373784005.1",
        "value": "MBH_300_SCRIPT8_MVE"
      } ],
      "status": "completed",
      "category": {
        "coding": [ {
          "system": "http://snomed.info/sct",
          "code": "373784005",
          "display": "verstrekken van medicatie"
        } ]
      },
      "medicationReference": {
        "reference": "urn:uuid:119dd11d-6abe-11ec-0000-020000000000",
        "type": "Medication",
        "display": "FRAXIPARINE FORTE INJV 11400IE/0,6ML(19000IE/ML)WW"
      },
      "subject": {
        "reference": "urn:uuid:ab71cf1e-6b3e-11ec-0000-020000000000",
        "type": "Patient",
        "display": "Patient, J. XXX_Laan"
      },
      "performer": [ {
        "actor": {
          "reference": "urn:uuid:10079464-6b64-11ec-0000-020000000000",
          "type": "Organization",
          "display": "Healthcare provider (organization), Apotheek De Gulle Gaper"
        }
      } ],
      "authorizingPrescription": [ {
        "type": "MedicationRequest",
        "identifier": {
          "system": "urn:oid:2.16.840.1.113883.2.4.3.11.999.77.52711000146108.1",
          "value": "MBH_300_SCRIPT8_VV"
        },
        "display": "relatie naar verstrekkingsverzoek met identificatie: MBH_300_SCRIPT8_VV || 2.16.840.1.113883.2.4.3.11.999.77.52711000146108.1"
      } ],
      "quantity": {
        "extension": [ {
          "url": "http://hl7.org/fhir/StructureDefinition/iso21090-PQ-translation",
          "valueQuantity": {
            "value": 5,
            "unit": "stuk",
            "system": "urn:oid:2.16.840.1.113883.2.4.4.1.900.2",
            "code": "245"
          }
        } ],
        "value": 5,
        "unit": "stuk",
        "system": "http://unitsofmeasure.org",
        "code": "1"
      },
      "whenHandedOver": "${DATE, T, D, -1}T10:10:00+02:00"
    },
    "request": {
      "method": "POST",
      "url": "MedicationDispense"
    }
  }, {
    "fullUrl": "urn:uuid:ab71cf1e-6b3e-11ec-0000-020000000000",
    "resource": {
      "resourceType": "Patient",
      "meta": {
        "profile": [ "http://nictiz.nl/fhir/StructureDefinition/nl-core-Patient" ]
      },
      "text": {
        "status": "extensions",
        "div": "<div xmlns=\"http://www.w3.org/1999/xhtml\">\n            <div>Id 999900742 (BSN), <span title=\"Naamsamenstelling: Eigennaam\">J. XXX_Laan</span>, Man, 21 oktober 1985</div>\n          </div>"
      },
      "identifier": [ {
        "system": "http://fhir.nl/fhir/NamingSystem/bsn",
        "value": "999900742"
      } ],
      "name": [ {
        "extension": [ {
          "url": "http://hl7.org/fhir/StructureDefinition/humanname-assembly-order",
          "valueCode": "NL1"
        } ],
        "use": "official",
        "text": "J. XXX_Laan",
        "family": "XXX_Laan",
        "_family": {
          "extension": [ {
            "url": "http://hl7.org/fhir/StructureDefinition/humanname-own-name",
            "valueString": "XXX_Laan"
          } ]
        },
        "given": [ "J." ],
        "_given": [ {
          "extension": [ {
            "url": "http://hl7.org/fhir/StructureDefinition/iso21090-EN-qualifier",
            "valueCode": "IN"
          } ]
        } ]
      } ],
      "gender": "male",
      "_gender": {
        "extension": [ {
          "url": "http://nictiz.nl/fhir/StructureDefinition/ext-CodeSpecification",
          "valueCodeableConcept": {
            "coding": [ {
              "system": "http://terminology.hl7.org/CodeSystem/v3-AdministrativeGender",
              "code": "M",
              "display": "Man"
            } ]
          }
        } ]
      },
      "birthDate": "1985-10-21"
    },
    "request": {
      "method": "POST",
      "url": "Patient"
    }
  }, {
    "fullUrl": "urn:uuid:10079464-6b64-11ec-0000-020000000000",
    "resource": {
      "resourceType": "Organization",
      "meta": {
        "profile": [ "http://nictiz.nl/fhir/StructureDefinition/nl-core-HealthcareProvider-Organization" ]
      },
      "text": {
        "status": "extensions",
        "div": "<div xmlns=\"http://www.w3.org/1999/xhtml\">\n            <table>\n              <caption>Organisatie. Id: 01236578 (URA)</caption>\n              <tbody>\n                <tr>\n                  <th>Naam</th>\n                  <td>Apotheek De Gulle Gaper</td>\n                </tr>\n                <tr>\n                  <th>Adres</th>\n                  <td>Dorpsstraat 12 A, 1234AA Ons Dorp (Werk)</td>\n                </tr>\n              </tbody>\n            </table>\n          </div>"
      },
      "identifier": [ {
        "system": "http://fhir.nl/fhir/NamingSystem/ura",
        "value": "01236578"
      } ],
      "name": "Apotheek De Gulle Gaper",
      "address": [ {
        "extension": [ {
          "url": "http://nictiz.nl/fhir/StructureDefinition/ext-AddressInformation.AddressType",
          "valueCodeableConcept": {
            "coding": [ {
              "system": "http://terminology.hl7.org/CodeSystem/v3-AddressUse",
              "code": "WP",
              "display": "Werkadres"
            } ]
          }
        } ],
        "use": "work",
        "line": [ "Dorpsstraat 12 A" ],
        "_line": [ {
          "extension": [ {
            "url": "http://hl7.org/fhir/StructureDefinition/iso21090-ADXP-streetName",
            "valueString": "Dorpsstraat"
          }, {
            "url": "http://hl7.org/fhir/StructureDefinition/iso21090-ADXP-houseNumber",
            "valueString": "12"
          }, {
            "url": "http://hl7.org/fhir/StructureDefinition/iso21090-ADXP-buildingNumberSuffix",
            "valueString": "A"
          } ]
        } ],
        "city": "Ons Dorp",
        "postalCode": "1234AA"
      } ]
    },
    "request": {
      "method": "POST",
      "url": "Organization"
    }
  }, {
    "fullUrl": "urn:uuid:119dd11d-6abe-11ec-0000-020000000000",
    "resource": {
      "resourceType": "Medication",
      "meta": {
        "profile": [ "http://nictiz.nl/fhir/StructureDefinition/mp-PharmaceuticalProduct" ]
      },
      "text": {
        "status": "extensions",
        "div": "<div xmlns=\"http://www.w3.org/1999/xhtml\">\n            <table>\n              <tbody>\n                <tr>\n                  <th>Code</th>\n                  <td>\n                    <span title=\"FRAXIPARINE FORTE INJV 11400IE/0,6ML(19000IE/ML)WW (1184601 - G-Standaard HPK)\">FRAXIPARINE FORTE INJV 11400IE/0,6ML(19000IE/ML)WW</span>\n                  </td>\n                </tr>\n              </tbody>\n            </table>\n          </div>"
      },
      "code": {
        "coding": [ {
          "system": "urn:oid:2.16.840.1.113883.2.4.4.7",
          "code": "1184601",
          "display": "FRAXIPARINE FORTE INJV 11400IE/0,6ML(19000IE/ML)WW",
          "userSelected": true
        }, {
          "system": "urn:oid:2.16.840.1.113883.2.4.4.10",
          "code": "53821",
          "display": "NADROPARINE INJVL WWSP 11400IE=0,6ML (19000IE/ML)"
        }, {
          "system": "urn:oid:2.16.840.1.113883.2.4.4.1",
          "code": "108278",
          "display": "NADROPARINE INJVLST 19000IE/ML"
        } ],
        "text": "FRAXIPARINE FORTE INJV 11400IE/0,6ML(19000IE/ML)WW"
      }
    },
    "request": {
      "method": "POST",
      "url": "Medication"
    }
  } ]
}