<Bundle xmlns="http://hl7.org/fhir">
  <id value="mg-mp-mg-kwal-MTD-script2-v30"/>
  <type value="transaction"/>
  <entry>
    <fullUrl value="urn:uuid:818cfc96-6b42-11ec-0000-020000000000"/>
    <resource>
      <MedicationAdministration>
        <meta>
          <profile value="http://nictiz.nl/fhir/StructureDefinition/mp-MedicationAdministration2"/>
        </meta>
        <text>
          <status value="extensions"/>
          <div xmlns="http://www.w3.org/1999/xhtml">
            <table>
              <caption>Medicatietoediening. Subject: Patient, M. XXX_Oorschot. Id: MBH_300_script2_MTD1 (urn:oid:2.16.840.1.113883.2.4.3.11.999.77.18629005.1), Categorie: <span title="toediening van medicatie (18629005 - SNOMED CT)">toediening van medicatie</span>, Status: onbekend</caption>
              <tbody>
                <tr>
                  <th>Medicatie</th>
                  <td>ACENOCOUMAROL CF TABLET 1MG</td>
                </tr>
                <tr>
                  <th>Datum/tijd</th>
                  <td>${DATE, T, D, -40}T20:00:00+02:00</td>
                </tr>
                <tr>
                  <th>Dosering</th>
                  <td>
                    <div>Toedieningsweg: <span title="oraal (9 - G-Standaard thesaurus subtabel 0007)">oraal</span>
                    </div>
                    <div>Dosering: 2 stuk</div>
                  </td>
                </tr>
              </tbody>
            </table>
          </div>
        </text>
        <extension url="http://nictiz.nl/fhir/StructureDefinition/ext-RegistrationDateTime">
          <valueDateTime value="${DATE, T, D, -40}T20:00:00+02:00"/>
        </extension>
        <extension url="http://nictiz.nl/fhir/StructureDefinition/ext-PharmaceuticalTreatment.Identifier">
          <valueIdentifier>
            <system value="urn:oid:2.16.840.1.113883.2.4.3.11.999.77.1.1"/>
            <value value="MBH_300_script2"/>
          </valueIdentifier>
        </extension>
        <identifier>
          <system value="urn:oid:2.16.840.1.113883.2.4.3.11.999.77.18629005.1"/>
          <value value="MBH_300_script2_MTD1"/>
        </identifier>
        <status value="unknown"/>
        <category>
          <coding>
            <system value="http://snomed.info/sct"/>
            <code value="18629005"/>
            <display value="toediening van medicatie"/>
          </coding>
        </category>
        <medicationReference>
          <reference value="urn:uuid:d6d3451d-6ae0-11ec-0000-020000000000"/>
          <type value="Medication"/>
          <display value="ACENOCOUMAROL CF TABLET 1MG"/>
        </medicationReference>
        <subject>
          <reference value="urn:uuid:8f8c8dfe-6b19-11ec-0000-020000000000"/>
          <type value="Patient"/>
          <display value="Patient, M. XXX_Oorschot"/>
        </subject>
        <effectiveDateTime value="${DATE, T, D, -40}T20:00:00+02:00"/>
        <performer>
          <actor>
            <reference value="urn:uuid:a757282e-6b76-11ec-0000-020000000000"/>
            <type value="PractitionerRole"/>
            <display value="Healthcare professional (role), Jantien Toedien, Verpleegkundigen, niet nader gespecificeerd, Thuiszorg Om en Bij"/>
          </actor>
        </performer>
        <request>
          <extension url="http://nictiz.nl/fhir/StructureDefinition/ext-ResourceCategory">
            <valueCodeableConcept>
              <coding>
                <system value="http://snomed.info/sct"/>
                <code value="395067002"/>
                <display value="optimaliseren van dosering van medicatie"/>
              </coding>
            </valueCodeableConcept>
          </extension>
          <type value="MedicationRequest"/>
          <identifier>
            <system value="urn:oid:2.16.840.1.113883.2.4.3.11.999.77.632.1"/>
            <value value="MBH_300_script2_WDS_opstartschema"/>
          </identifier>
          <display value="relatie naar wisselend doseerschema met identificatie: MBH_300_script2_WDS_opstartschema || 2.16.840.1.113883.2.4.3.11.999.77.632.1"/>
        </request>
        <dosage>
          <route>
            <coding>
              <system value="urn:oid:2.16.840.1.113883.2.4.4.9"/>
              <code value="9"/>
              <display value="oraal"/>
            </coding>
          </route>
          <dose>
            <extension url="http://hl7.org/fhir/StructureDefinition/iso21090-PQ-translation">
              <valueQuantity>
                <value value="2"/>
                <unit value="stuk"/>
                <system value="urn:oid:2.16.840.1.113883.2.4.4.1.900.2"/>
                <code value="245"/>
              </valueQuantity>
            </extension>
            <value value="2"/>
            <unit value="stuk"/>
            <system value="http://unitsofmeasure.org"/>
            <code value="1"/>
          </dose>
        </dosage>
      </MedicationAdministration>
    </resource>
    <request>
      <method value="POST"/>
      <url value="MedicationAdministration"/>
    </request>
  </entry>
  <entry>
    <fullUrl value="urn:uuid:62eca45d-6ad0-11ec-0000-020000000000"/>
    <resource>
      <MedicationAdministration>
        <meta>
          <profile value="http://nictiz.nl/fhir/StructureDefinition/mp-MedicationAdministration2"/>
        </meta>
        <text>
          <status value="extensions"/>
          <div xmlns="http://www.w3.org/1999/xhtml">
            <table>
              <caption>Medicatietoediening. Subject: Patient, M. XXX_Oorschot. Id: MBH_300_script2_MTD2_Afwijking (urn:oid:2.16.840.1.113883.2.4.3.11.999.77.18629005.1), Categorie: <span title="toediening van medicatie (18629005 - SNOMED CT)">toediening van medicatie</span>, Status: onbekend</caption>
              <tbody>
                <tr>
                  <th>Medicatie</th>
                  <td>ACENOCOUMAROL CF TABLET 1MG</td>
                </tr>
                <tr>
                  <th>Datum/tijd</th>
                  <td>${DATE, T, D, -39}T20:00:00+02:00</td>
                </tr>
                <tr>
                  <th>Dosering</th>
                  <td>
                    <div>Toedieningsweg: <span title="oraal (9 - G-Standaard thesaurus subtabel 0007)">oraal</span>
                    </div>
                    <div>Dosering: 1 stuk</div>
                  </td>
                </tr>
              </tbody>
            </table>
          </div>
        </text>
        <extension url="http://nictiz.nl/fhir/StructureDefinition/ext-RegistrationDateTime">
          <valueDateTime value="${DATE, T, D, -39}T20:00:00+02:00"/>
        </extension>
        <extension url="http://nictiz.nl/fhir/StructureDefinition/ext-PharmaceuticalTreatment.Identifier">
          <valueIdentifier>
            <system value="urn:oid:2.16.840.1.113883.2.4.3.11.999.77.1.1"/>
            <value value="MBH_300_script2"/>
          </valueIdentifier>
        </extension>
        <identifier>
          <system value="urn:oid:2.16.840.1.113883.2.4.3.11.999.77.18629005.1"/>
          <value value="MBH_300_script2_MTD2_Afwijking"/>
        </identifier>
        <status value="unknown"/>
        <category>
          <coding>
            <system value="http://snomed.info/sct"/>
            <code value="18629005"/>
            <display value="toediening van medicatie"/>
          </coding>
        </category>
        <medicationReference>
          <reference value="urn:uuid:d6d3451d-6ae0-11ec-0000-020000000000"/>
          <type value="Medication"/>
          <display value="ACENOCOUMAROL CF TABLET 1MG"/>
        </medicationReference>
        <subject>
          <reference value="urn:uuid:8f8c8dfe-6b19-11ec-0000-020000000000"/>
          <type value="Patient"/>
          <display value="Patient, M. XXX_Oorschot"/>
        </subject>
        <effectiveDateTime value="${DATE, T, D, -39}T20:00:00+02:00"/>
        <performer>
          <actor>
            <reference value="urn:uuid:a757282e-6b76-11ec-0000-020000000000"/>
            <type value="PractitionerRole"/>
            <display value="Healthcare professional (role), Jantien Toedien, Verpleegkundigen, niet nader gespecificeerd, Thuiszorg Om en Bij"/>
          </actor>
        </performer>
        <request>
          <extension url="http://nictiz.nl/fhir/StructureDefinition/ext-ResourceCategory">
            <valueCodeableConcept>
              <coding>
                <system value="http://snomed.info/sct"/>
                <code value="395067002"/>
                <display value="optimaliseren van dosering van medicatie"/>
              </coding>
            </valueCodeableConcept>
          </extension>
          <type value="MedicationRequest"/>
          <identifier>
            <system value="urn:oid:2.16.840.1.113883.2.4.3.11.999.77.632.1"/>
            <value value="MBH_300_script2_WDS_opstartschema"/>
          </identifier>
          <display value="relatie naar wisselend doseerschema met identificatie: MBH_300_script2_WDS_opstartschema || 2.16.840.1.113883.2.4.3.11.999.77.632.1"/>
        </request>
        <dosage>
          <route>
            <coding>
              <system value="urn:oid:2.16.840.1.113883.2.4.4.9"/>
              <code value="9"/>
              <display value="oraal"/>
            </coding>
          </route>
          <dose>
            <extension url="http://hl7.org/fhir/StructureDefinition/iso21090-PQ-translation">
              <valueQuantity>
                <value value="1"/>
                <unit value="stuk"/>
                <system value="urn:oid:2.16.840.1.113883.2.4.4.1.900.2"/>
                <code value="245"/>
              </valueQuantity>
            </extension>
            <value value="1"/>
            <unit value="stuk"/>
            <system value="http://unitsofmeasure.org"/>
            <code value="1"/>
          </dose>
        </dosage>
      </MedicationAdministration>
    </resource>
    <request>
      <method value="POST"/>
      <url value="MedicationAdministration"/>
    </request>
  </entry>
  <entry>
    <fullUrl value="urn:uuid:f6b9ec96-6ac4-11ec-0000-020000000000"/>
    <resource>
      <MedicationAdministration>
        <meta>
          <profile value="http://nictiz.nl/fhir/StructureDefinition/mp-MedicationAdministration2"/>
        </meta>
        <text>
          <status value="extensions"/>
          <div xmlns="http://www.w3.org/1999/xhtml">
            <table>
              <caption>Medicatietoediening. Subject: Patient, M. XXX_Oorschot. Id: MBH_300_script2_MTD3_Correctie (urn:oid:2.16.840.1.113883.2.4.3.11.999.77.18629005.1), Categorie: <span title="toediening van medicatie (18629005 - SNOMED CT)">toediening van medicatie</span>, Status: onbekend</caption>
              <tbody>
                <tr>
                  <th>Medicatie</th>
                  <td>ACENOCOUMAROL CF TABLET 1MG</td>
                </tr>
                <tr>
                  <th>Datum/tijd</th>
                  <td>${DATE, T, D, -39}T20:00:00+02:00</td>
                </tr>
                <tr>
                  <th>Dosering</th>
                  <td>
                    <div>Toedieningsweg: <span title="oraal (9 - G-Standaard thesaurus subtabel 0007)">oraal</span>
                    </div>
                    <div>Dosering: 1 stuk</div>
                  </td>
                </tr>
              </tbody>
            </table>
          </div>
        </text>
        <extension url="http://nictiz.nl/fhir/StructureDefinition/ext-RegistrationDateTime">
          <valueDateTime value="${DATE, T, D, -39}T20:10:00+02:00"/>
        </extension>
        <extension url="http://nictiz.nl/fhir/StructureDefinition/ext-MedicationAdministration2.ReasonForDeviation">
          <valueCodeableConcept>
            <coding>
              <system value="http://snomed.info/sct"/>
              <code value="159691000146109"/>
              <display value="foutieve registratie van medicatie"/>
            </coding>
          </valueCodeableConcept>
        </extension>
        <extension url="http://nictiz.nl/fhir/StructureDefinition/ext-PharmaceuticalTreatment.Identifier">
          <valueIdentifier>
            <system value="urn:oid:2.16.840.1.113883.2.4.3.11.999.77.1.1"/>
            <value value="MBH_300_script2"/>
          </valueIdentifier>
        </extension>
        <identifier>
          <system value="urn:oid:2.16.840.1.113883.2.4.3.11.999.77.18629005.1"/>
          <value value="MBH_300_script2_MTD3_Correctie"/>
        </identifier>
        <status value="unknown"/>
        <category>
          <coding>
            <system value="http://snomed.info/sct"/>
            <code value="18629005"/>
            <display value="toediening van medicatie"/>
          </coding>
        </category>
        <medicationReference>
          <reference value="urn:uuid:d6d3451d-6ae0-11ec-0000-020000000000"/>
          <type value="Medication"/>
          <display value="ACENOCOUMAROL CF TABLET 1MG"/>
        </medicationReference>
        <subject>
          <reference value="urn:uuid:8f8c8dfe-6b19-11ec-0000-020000000000"/>
          <type value="Patient"/>
          <display value="Patient, M. XXX_Oorschot"/>
        </subject>
        <effectiveDateTime value="${DATE, T, D, -39}T20:00:00+02:00"/>
        <performer>
          <actor>
            <reference value="urn:uuid:a757282e-6b76-11ec-0000-020000000000"/>
            <type value="PractitionerRole"/>
            <display value="Healthcare professional (role), Jantien Toedien, Verpleegkundigen, niet nader gespecificeerd, Thuiszorg Om en Bij"/>
          </actor>
        </performer>
        <request>
          <extension url="http://nictiz.nl/fhir/StructureDefinition/ext-ResourceCategory">
            <valueCodeableConcept>
              <coding>
                <system value="http://snomed.info/sct"/>
                <code value="395067002"/>
                <display value="optimaliseren van dosering van medicatie"/>
              </coding>
            </valueCodeableConcept>
          </extension>
          <type value="MedicationRequest"/>
          <identifier>
            <system value="urn:oid:2.16.840.1.113883.2.4.3.11.999.77.632.1"/>
            <value value="MBH_300_script2_WDS_opstartschema"/>
          </identifier>
          <display value="relatie naar wisselend doseerschema met identificatie: MBH_300_script2_WDS_opstartschema || 2.16.840.1.113883.2.4.3.11.999.77.632.1"/>
        </request>
        <dosage>
          <route>
            <coding>
              <system value="urn:oid:2.16.840.1.113883.2.4.4.9"/>
              <code value="9"/>
              <display value="oraal"/>
            </coding>
          </route>
          <dose>
            <extension url="http://hl7.org/fhir/StructureDefinition/iso21090-PQ-translation">
              <valueQuantity>
                <value value="1"/>
                <unit value="stuk"/>
                <system value="urn:oid:2.16.840.1.113883.2.4.4.1.900.2"/>
                <code value="245"/>
              </valueQuantity>
            </extension>
            <value value="1"/>
            <unit value="stuk"/>
            <system value="http://unitsofmeasure.org"/>
            <code value="1"/>
          </dose>
        </dosage>
      </MedicationAdministration>
    </resource>
    <request>
      <method value="POST"/>
      <url value="MedicationAdministration"/>
    </request>
  </entry>
  <entry>
    <fullUrl value="urn:uuid:a9c62c96-6b3d-11ec-0000-020000000000"/>
    <resource>
      <MedicationAdministration>
        <meta>
          <profile value="http://nictiz.nl/fhir/StructureDefinition/mp-MedicationAdministration2"/>
        </meta>
        <text>
          <status value="extensions"/>
          <div xmlns="http://www.w3.org/1999/xhtml">
            <table>
              <caption>Medicatietoediening. Subject: Patient, M. XXX_Oorschot. Id: MBH_300_script2_MTD4 (urn:oid:2.16.840.1.113883.2.4.3.11.999.77.18629005.1), Categorie: <span title="toediening van medicatie (18629005 - SNOMED CT)">toediening van medicatie</span>, Status: onbekend</caption>
              <tbody>
                <tr>
                  <th>Medicatie</th>
                  <td>ACENOCOUMAROL CF TABLET 1MG</td>
                </tr>
                <tr>
                  <th>Datum/tijd</th>
                  <td>${DATE, T, D, -38}T20:00:00+02:00</td>
                </tr>
                <tr>
                  <th>Dosering</th>
                  <td>
                    <div>Toedieningsweg: <span title="oraal (9 - G-Standaard thesaurus subtabel 0007)">oraal</span>
                    </div>
                    <div>Dosering: 2 stuk</div>
                  </td>
                </tr>
              </tbody>
            </table>
          </div>
        </text>
        <extension url="http://nictiz.nl/fhir/StructureDefinition/ext-RegistrationDateTime">
          <valueDateTime value="${DATE, T, D, -38}T20:00:00+02:00"/>
        </extension>
        <extension url="http://nictiz.nl/fhir/StructureDefinition/ext-PharmaceuticalTreatment.Identifier">
          <valueIdentifier>
            <system value="urn:oid:2.16.840.1.113883.2.4.3.11.999.77.1.1"/>
            <value value="MBH_300_script2"/>
          </valueIdentifier>
        </extension>
        <identifier>
          <system value="urn:oid:2.16.840.1.113883.2.4.3.11.999.77.18629005.1"/>
          <value value="MBH_300_script2_MTD4"/>
        </identifier>
        <status value="unknown"/>
        <category>
          <coding>
            <system value="http://snomed.info/sct"/>
            <code value="18629005"/>
            <display value="toediening van medicatie"/>
          </coding>
        </category>
        <medicationReference>
          <reference value="urn:uuid:d6d3451d-6ae0-11ec-0000-020000000000"/>
          <type value="Medication"/>
          <display value="ACENOCOUMAROL CF TABLET 1MG"/>
        </medicationReference>
        <subject>
          <reference value="urn:uuid:8f8c8dfe-6b19-11ec-0000-020000000000"/>
          <type value="Patient"/>
          <display value="Patient, M. XXX_Oorschot"/>
        </subject>
        <effectiveDateTime value="${DATE, T, D, -38}T20:00:00+02:00"/>
        <performer>
          <actor>
            <reference value="urn:uuid:a757282e-6b76-11ec-0000-020000000000"/>
            <type value="PractitionerRole"/>
            <display value="Healthcare professional (role), Jantien Toedien, Verpleegkundigen, niet nader gespecificeerd, Thuiszorg Om en Bij"/>
          </actor>
        </performer>
        <request>
          <extension url="http://nictiz.nl/fhir/StructureDefinition/ext-ResourceCategory">
            <valueCodeableConcept>
              <coding>
                <system value="http://snomed.info/sct"/>
                <code value="395067002"/>
                <display value="optimaliseren van dosering van medicatie"/>
              </coding>
            </valueCodeableConcept>
          </extension>
          <type value="MedicationRequest"/>
          <identifier>
            <system value="urn:oid:2.16.840.1.113883.2.4.3.11.999.77.632.1"/>
            <value value="MBH_300_script2_WDS_opstartschema"/>
          </identifier>
          <display value="relatie naar wisselend doseerschema met identificatie: MBH_300_script2_WDS_opstartschema || 2.16.840.1.113883.2.4.3.11.999.77.632.1"/>
        </request>
        <dosage>
          <route>
            <coding>
              <system value="urn:oid:2.16.840.1.113883.2.4.4.9"/>
              <code value="9"/>
              <display value="oraal"/>
            </coding>
          </route>
          <dose>
            <extension url="http://hl7.org/fhir/StructureDefinition/iso21090-PQ-translation">
              <valueQuantity>
                <value value="2"/>
                <unit value="stuk"/>
                <system value="urn:oid:2.16.840.1.113883.2.4.4.1.900.2"/>
                <code value="245"/>
              </valueQuantity>
            </extension>
            <value value="2"/>
            <unit value="stuk"/>
            <system value="http://unitsofmeasure.org"/>
            <code value="1"/>
          </dose>
        </dosage>
      </MedicationAdministration>
    </resource>
    <request>
      <method value="POST"/>
      <url value="MedicationAdministration"/>
    </request>
  </entry>
  <entry>
    <fullUrl value="urn:uuid:8f8c8dfe-6b19-11ec-0000-020000000000"/>
    <resource>
      <Patient>
        <meta>
          <profile value="http://nictiz.nl/fhir/StructureDefinition/nl-core-Patient"/>
        </meta>
        <text>
          <status value="extensions"/>
          <div xmlns="http://www.w3.org/1999/xhtml">
            <div>Id 999900869 (BSN), <span title="Naamsamenstelling: Eigennaam">M. XXX_Oorschot</span>, Man, 31 oktober 1985</div>
          </div>
        </text>
        <identifier>
          <system value="http://fhir.nl/fhir/NamingSystem/bsn"/>
          <value value="999900869"/>
        </identifier>
        <name>
          <extension url="http://hl7.org/fhir/StructureDefinition/humanname-assembly-order">
            <valueCode value="NL1"/>
          </extension>
          <use value="official"/>
          <text value="M. XXX_Oorschot"/>
          <family value="XXX_Oorschot">
            <extension url="http://hl7.org/fhir/StructureDefinition/humanname-own-name">
              <valueString value="XXX_Oorschot"/>
            </extension>
          </family>
          <given value="M.">
            <extension url="http://hl7.org/fhir/StructureDefinition/iso21090-EN-qualifier">
              <valueCode value="IN"/>
            </extension>
          </given>
        </name>
        <gender value="male">
          <extension url="http://nictiz.nl/fhir/StructureDefinition/ext-CodeSpecification">
            <valueCodeableConcept>
              <coding>
                <system value="http://terminology.hl7.org/CodeSystem/v3-AdministrativeGender"/>
                <code value="M"/>
                <display value="Man"/>
              </coding>
            </valueCodeableConcept>
          </extension>
        </gender>
        <birthDate value="1985-10-31"/>
      </Patient>
    </resource>
    <request>
      <method value="POST"/>
      <url value="Patient"/>
    </request>
  </entry>
  <entry>
    <fullUrl value="urn:uuid:a757282e-6b76-11ec-0000-020000000000"/>
    <resource>
      <PractitionerRole>
        <meta>
          <profile value="http://nictiz.nl/fhir/StructureDefinition/nl-core-HealthProfessional-PractitionerRole"/>
        </meta>
        <text>
          <status value="extensions"/>
          <div xmlns="http://www.w3.org/1999/xhtml">
            <table>
              <caption>Zorgverlenerrol. </caption>
              <tbody>
                <tr>
                  <th>Zorgverlener</th>
                  <td>
                    <div>Healthcare professional (person), Jantien Toedien</div>
                    <div>Healthcare provider (organization), Thuiszorg Om en Bij</div>
                  </td>
                </tr>
                <tr>
                  <th>Specialisme</th>
                  <td>
                    <span title="Verpleegkundigen, niet nader gespecificeerd (9100 - AGB-medisch specialisme)">Verpleegkundigen, niet nader gespecificeerd</span>
                  </td>
                </tr>
              </tbody>
            </table>
          </div>
        </text>
        <practitioner>
          <reference value="urn:uuid:f1e8c824-6b20-11ec-0000-020000000000"/>
          <type value="Practitioner"/>
          <display value="Healthcare professional (person), Jantien Toedien"/>
        </practitioner>
        <organization>
          <reference value="urn:uuid:b0d9956e-6a9d-11ec-0000-020000000000"/>
          <type value="Organization"/>
          <display value="Healthcare provider (organization), Thuiszorg Om en Bij"/>
        </organization>
        <specialty>
          <coding>
            <system value="urn:oid:2.16.840.1.113883.2.4.6.7"/>
            <version value="2020-10-23T00:00:00"/>
            <code value="9100"/>
            <display value="Verpleegkundigen, niet nader gespecificeerd"/>
          </coding>
        </specialty>
      </PractitionerRole>
    </resource>
    <request>
      <method value="POST"/>
      <url value="PractitionerRole"/>
    </request>
  </entry>
  <entry>
    <fullUrl value="urn:uuid:f1e8c824-6b20-11ec-0000-020000000000"/>
    <resource>
      <Practitioner>
        <meta>
          <profile value="http://nictiz.nl/fhir/StructureDefinition/nl-core-HealthProfessional-Practitioner"/>
        </meta>
        <text>
          <status value="extensions"/>
          <div xmlns="http://www.w3.org/1999/xhtml">
            <div>Id 222220000 (UZI-NR-PERS), Jantien Toedien</div>
          </div>
        </text>
        <identifier>
          <system value="http://fhir.nl/fhir/NamingSystem/uzi-nr-pers"/>
          <value value="222220000"/>
        </identifier>
        <name>
          <use value="official"/>
          <text value="Jantien Toedien"/>
          <family value="Toedien">
            <extension url="http://hl7.org/fhir/StructureDefinition/humanname-own-name">
              <valueString value="Toedien"/>
            </extension>
          </family>
          <given value="Jantien">
            <extension url="http://hl7.org/fhir/StructureDefinition/iso21090-EN-qualifier">
              <valueCode value="BR"/>
            </extension>
          </given>
        </name>
      </Practitioner>
    </resource>
    <request>
      <method value="POST"/>
      <url value="Practitioner"/>
    </request>
  </entry>
  <entry>
    <fullUrl value="urn:uuid:b0d9956e-6a9d-11ec-0000-020000000000"/>
    <resource>
      <Organization>
        <meta>
          <profile value="http://nictiz.nl/fhir/StructureDefinition/nl-core-HealthcareProvider-Organization"/>
        </meta>
        <text>
          <status value="extensions"/>
          <div xmlns="http://www.w3.org/1999/xhtml">
            <table>
              <caption>Organisatie. Id: 11110000 (URA)</caption>
              <tbody>
                <tr>
                  <th>Naam</th>
                  <td>Thuiszorg Om en Bij</td>
                </tr>
                <tr>
                  <th>Type</th>
                  <td>
                    <span title="Thuiszorg (T2 - organization-type)">Thuiszorg</span>
                  </td>
                </tr>
              </tbody>
            </table>
          </div>
        </text>
        <identifier>
          <system value="http://fhir.nl/fhir/NamingSystem/ura"/>
          <value value="11110000"/>
        </identifier>
        <type>
          <coding>
            <system value="http://nictiz.nl/fhir/NamingSystem/organization-type"/>
            <code value="T2"/>
            <display value="Thuiszorg"/>
          </coding>
        </type>
        <name value="Thuiszorg Om en Bij"/>
      </Organization>
    </resource>
    <request>
      <method value="POST"/>
      <url value="Organization"/>
    </request>
  </entry>
  <entry>
    <fullUrl value="urn:uuid:d6d3451d-6ae0-11ec-0000-020000000000"/>
    <resource>
      <Medication>
        <meta>
          <profile value="http://nictiz.nl/fhir/StructureDefinition/mp-PharmaceuticalProduct"/>
        </meta>
        <text>
          <status value="extensions"/>
          <div xmlns="http://www.w3.org/1999/xhtml">
            <table>
              <tbody>
                <tr>
                  <th>Code</th>
                  <td>
                    <span title="ACENOCOUMAROL CF TABLET 1MG (856126 - G-Standaard HPK)">ACENOCOUMAROL CF TABLET 1MG</span>
                  </td>
                </tr>
              </tbody>
            </table>
          </div>
        </text>
        <code>
          <coding>
            <system value="urn:oid:2.16.840.1.113883.2.4.4.7"/>
            <code value="856126"/>
            <display value="ACENOCOUMAROL CF TABLET 1MG"/>
            <userSelected value="true"/>
          </coding>
          <coding>
            <system value="urn:oid:2.16.840.1.113883.2.4.4.10"/>
            <code value="7323"/>
            <display value="ACENOCOUMAROL TABLET 1MG"/>
          </coding>
          <coding>
            <system value="urn:oid:2.16.840.1.113883.2.4.4.1"/>
            <code value="20303"/>
            <display value="ACENOCOUMAROL TABLET 1MG"/>
          </coding>
          <text value="ACENOCOUMAROL CF TABLET 1MG"/>
        </code>
      </Medication>
    </resource>
    <request>
      <method value="POST"/>
      <url value="Medication"/>
    </request>
  </entry>
</Bundle>
