<Bundle xmlns="http://hl7.org/fhir">
  <id value="mg-mp-mg-kwal-MVE-script3-v30"/>
  <type value="transaction"/>
  <entry>
    <fullUrl value="urn:uuid:cb74dda7-6b50-11ec-0000-020000000000"/>
    <resource>
      <MedicationDispense>
        <meta>
          <profile value="http://nictiz.nl/fhir/StructureDefinition/mp-MedicationDispense"/>
        </meta>
        <text>
          <status value="extensions"/>
          <div xmlns="http://www.w3.org/1999/xhtml">
            <table>
              <caption>MedicationDispense. Subject: Patient, H. van de XXX_Kamphuis. Id: MBH_300_script3_MVE (urn:oid:2.16.840.1.113883.2.4.3.11.999.77.373784005.1), Categorie: <span title="verstrekken van medicatie (373784005 - SNOMED CT)">verstrekken van medicatie</span>, Status: voltooid<span style="display: block;">Uitvoerende: Healthcare provider (organization), Apotheek De Gulle Gaper</span>
              </caption>
              <tbody>
                <tr>
                  <th>Gebaseerd op</th>
                  <td>relatie naar verstrekkingsverzoek met identificatie: MBH_300_script3_VV || 2.16.840.1.113883.2.4.3.11.999.77.52711000146108.1 (Id: MBH_300_script3_VV (urn:oid:2.16.840.1.113883.2.4.3.11.999.77.52711000146108.1))</td>
                </tr>
                <tr>
                  <th>Medicatie</th>
                  <td>NITROGLYCERINE SDZ OROMUC SPRAY</td>
                </tr>
                <tr>
                  <th>Hoeveelheid</th>
                  <td>1 stuk</td>
                </tr>
                <tr>
                  <th>Datum overhandigd</th>
                  <td>${DATE, T, D, -5}T09:15:00+02:00</td>
                </tr>
              </tbody>
            </table>
          </div>
        </text>
        <extension url="http://nictiz.nl/fhir/StructureDefinition/ext-PharmaceuticalTreatment.Identifier">
          <valueIdentifier>
            <system value="urn:oid:2.16.840.1.113883.2.4.3.11.999.77.1.1"/>
            <value value="MBH_300_script3"/>
          </valueIdentifier>
        </extension>
        <identifier>
          <system value="urn:oid:2.16.840.1.113883.2.4.3.11.999.77.373784005.1"/>
          <value value="MBH_300_script3_MVE"/>
        </identifier>
        <status value="completed"/>
        <category>
          <coding>
            <system value="http://snomed.info/sct"/>
            <code value="373784005"/>
            <display value="verstrekken van medicatie"/>
          </coding>
        </category>
        <medicationReference>
          <reference value="urn:uuid:d11cb91d-6b50-11ec-0000-020000000000"/>
          <type value="Medication"/>
          <display value="NITROGLYCERINE SDZ OROMUC SPRAY"/>
        </medicationReference>
        <subject>
          <reference value="urn:uuid:2328b5be-6ac1-11ec-0000-020000000000"/>
          <type value="Patient"/>
          <display value="Patient, H. van de XXX_Kamphuis"/>
        </subject>
        <performer>
          <actor>
            <reference value="urn:uuid:98d231d8-6b0c-11ec-0000-020000000000"/>
            <type value="Organization"/>
            <display value="Healthcare provider (organization), Apotheek De Gulle Gaper"/>
          </actor>
        </performer>
        <authorizingPrescription>
          <type value="MedicationRequest"/>
          <identifier>
            <system value="urn:oid:2.16.840.1.113883.2.4.3.11.999.77.52711000146108.1"/>
            <value value="MBH_300_script3_VV"/>
          </identifier>
          <display value="relatie naar verstrekkingsverzoek met identificatie: MBH_300_script3_VV || 2.16.840.1.113883.2.4.3.11.999.77.52711000146108.1"/>
        </authorizingPrescription>
        <quantity>
          <extension url="http://hl7.org/fhir/StructureDefinition/iso21090-PQ-translation">
            <valueQuantity>
              <value value="1"/>
              <unit value="stuk"/>
              <system value="urn:oid:2.16.840.1.113883.2.4.4.1.900.2"/>
              <code value="245"/>
            </valueQuantity>
          </extension>
          <value value="1"/>
          <unit value="stuk"/>
          <system value="http://unitsofmeasure.org"/>
          <code value="1"/>
        </quantity>
        <whenHandedOver value="${DATE, T, D, -5}T09:15:00+02:00"/>
      </MedicationDispense>
    </resource>
    <request>
      <method value="POST"/>
      <url value="MedicationDispense"/>
    </request>
  </entry>
  <entry>
    <fullUrl value="urn:uuid:2328b5be-6ac1-11ec-0000-020000000000"/>
    <resource>
      <Patient>
        <meta>
          <profile value="http://nictiz.nl/fhir/StructureDefinition/nl-core-Patient"/>
        </meta>
        <text>
          <status value="extensions"/>
          <div xmlns="http://www.w3.org/1999/xhtml">
            <div>Id 999900675 (BSN), <span title="Naamsamenstelling: Eigennaam">H. van de XXX_Kamphuis</span>, Vrouw, 8 november 1963</div>
          </div>
        </text>
        <identifier>
          <system value="http://fhir.nl/fhir/NamingSystem/bsn"/>
          <value value="999900675"/>
        </identifier>
        <name>
          <extension url="http://hl7.org/fhir/StructureDefinition/humanname-assembly-order">
            <valueCode value="NL1"/>
          </extension>
          <use value="official"/>
          <text value="H. van de XXX_Kamphuis"/>
          <family value="van de XXX_Kamphuis">
            <extension url="http://hl7.org/fhir/StructureDefinition/humanname-own-prefix">
              <valueString value="van de"/>
            </extension>
            <extension url="http://hl7.org/fhir/StructureDefinition/humanname-own-name">
              <valueString value="XXX_Kamphuis"/>
            </extension>
          </family>
          <given value="H.">
            <extension url="http://hl7.org/fhir/StructureDefinition/iso21090-EN-qualifier">
              <valueCode value="IN"/>
            </extension>
          </given>
        </name>
        <gender value="female">
          <extension url="http://nictiz.nl/fhir/StructureDefinition/ext-CodeSpecification">
            <valueCodeableConcept>
              <coding>
                <system value="http://terminology.hl7.org/CodeSystem/v3-AdministrativeGender"/>
                <code value="F"/>
                <display value="Vrouw"/>
              </coding>
            </valueCodeableConcept>
          </extension>
        </gender>
        <birthDate value="1963-11-08"/>
      </Patient>
    </resource>
    <request>
      <method value="POST"/>
      <url value="Patient"/>
    </request>
  </entry>
  <entry>
    <fullUrl value="urn:uuid:98d231d8-6b0c-11ec-0000-020000000000"/>
    <resource>
      <Organization>
        <meta>
          <profile value="http://nictiz.nl/fhir/StructureDefinition/nl-core-HealthcareProvider-Organization"/>
        </meta>
        <text>
          <status value="extensions"/>
          <div xmlns="http://www.w3.org/1999/xhtml">
            <table>
              <caption>Organisatie. Id: 01236578 (URA)</caption>
              <tbody>
                <tr>
                  <th>Naam</th>
                  <td>Apotheek De Gulle Gaper</td>
                </tr>
              </tbody>
            </table>
          </div>
        </text>
        <identifier>
          <system value="http://fhir.nl/fhir/NamingSystem/ura"/>
          <value value="01236578"/>
        </identifier>
        <name value="Apotheek De Gulle Gaper"/>
      </Organization>
    </resource>
    <request>
      <method value="POST"/>
      <url value="Organization"/>
    </request>
  </entry>
  <entry>
    <fullUrl value="urn:uuid:d11cb91d-6b50-11ec-0000-020000000000"/>
    <resource>
      <Medication>
        <meta>
          <profile value="http://nictiz.nl/fhir/StructureDefinition/mp-PharmaceuticalProduct"/>
        </meta>
        <text>
          <status value="extensions"/>
          <div xmlns="http://www.w3.org/1999/xhtml">
            <table>
              <tbody>
                <tr>
                  <th>Code</th>
                  <td>
                    <span title="NITROGLYCERINE SDZ OROMUC SPRAY (1822454 - G-Standaard HPK)">NITROGLYCERINE SDZ OROMUC SPRAY</span>
                  </td>
                </tr>
              </tbody>
            </table>
          </div>
        </text>
        <code>
          <coding>
            <system value="urn:oid:2.16.840.1.113883.2.4.4.7"/>
            <code value="1822454"/>
            <display value="NITROGLYCERINE SDZ OROMUC SPRAY"/>
            <userSelected value="true"/>
          </coding>
          <coding>
            <system value="urn:oid:2.16.840.1.113883.2.4.4.10"/>
            <code value="72206"/>
            <display value="NITROGLYCERINE SPRAY SUBLING. 0,4MG/DO"/>
          </coding>
          <coding>
            <system value="urn:oid:2.16.840.1.113883.2.4.4.1"/>
            <code value="119431"/>
            <display value="NITROGLYCERINE SPRAY SUBLING. 0,4MG/DO"/>
          </coding>
          <text value="NITROGLYCERINE SDZ OROMUC SPRAY "/>
        </code>
      </Medication>
    </resource>
    <request>
      <method value="POST"/>
      <url value="Medication"/>
    </request>
  </entry>
</Bundle>
