<Bundle xmlns="http://hl7.org/fhir">
  <id value="mg-mp-mg-kwal-MGB-script0-v30"/>
  <type value="transaction"/>
  <entry>
    <fullUrl value="urn:uuid:09da9367-6b14-11ec-0000-020000000000"/>
    <resource>
      <MedicationStatement>
        <meta>
          <profile value="http://nictiz.nl/fhir/StructureDefinition/mp-MedicationUse2"/>
        </meta>
        <text>
          <status value="extensions"/>
          <div xmlns="http://www.w3.org/1999/xhtml">
            <table>
              <caption>MedicationStatement. Subject: Patient, G. XXX_Groot. Id: MBH_300_script0_QA1_MGB (urn:oid:2.16.840.1.113883.2.4.3.11.999.77.6.1), Categorie: <span title="bevinding betreffende gedrag met betrekking tot medicatieregime (422979000 - SNOMED CT)">bevinding betreffende gedrag met betrekking tot medicatieregime</span>, Status: actief</caption>
              <tbody>
                <tr>
                  <th>Medicatie</th>
                  <td>INNOHEP INJVLST 20000 IE/ML WWSP 0,7ML</td>
                </tr>
                <tr>
                  <th>Datum/tijd</th>
                  <td>Vanaf ${DATE, T, D, -20}T00:00:00+02:00</td>
                </tr>
                <tr>
                  <th>Informant</th>
                  <td>${DATE, T, D, -15}T08:00:00+02:00 - Patient, G. XXX_Groot</td>
                </tr>
                <tr>
                  <th>Ondersteunende informatie</th>
                  <td>relatie naar toedieningsafspraak (Id: MBH_300_script0_QA1_TA (urn:oid:2.16.840.1.113883.2.4.3.11.999.77.422037009.1))</td>
                </tr>
                <tr>
                  <th>Dosering</th>
                  <td>
                    <div>Timing: <div>eenmalig per dag</div>
                    </div>
                    <div>Toedieningsweg: <span title="Subcutaan (21 - G-Standaard thesaurus subtabel 0007)">Subcutaan</span>
                    </div>
                    <div>Dosering: doseAndRate TODO</div>
                  </td>
                </tr>
              </tbody>
            </table>
          </div>
        </text>
        <extension url="http://nictiz.nl/fhir/StructureDefinition/ext-RenderedDosageInstruction">
          <valueString value="Vanaf &lt;T-20D{00:00:00}&gt;, gedurende 5 dagen, 2 maal per dag 2 stuks"/>
        </extension>
        <extension url="http://nictiz.nl/fhir/StructureDefinition/ext-MedicationUse2.Prescriber">
          <valueReference>
            <reference value="urn:uuid:36322824-6aed-11ec-0000-020000000000"/>
            <type value="PractitionerRole"/>
            <display value="Healthcare professional (role), Peter van Pulver, Huisartsen, niet nader gespecificeerd, Huisartsenpraktijk Pulver &amp; Partners"/>
          </valueReference>
        </extension>
        <extension url="http://nictiz.nl/fhir/StructureDefinition/ext-AsAgreedIndicator">
          <valueBoolean value="true"/>
        </extension>
        <extension url="http://nictiz.nl/fhir/StructureDefinition/ext-PharmaceuticalTreatment.Identifier">
          <valueIdentifier>
            <system value="urn:oid:2.16.840.1.113883.2.4.3.11.999.77.1.1"/>
            <value value="MBH_300_script0_QA1"/>
          </valueIdentifier>
        </extension>
        <extension url="http://nictiz.nl/fhir/StructureDefinition/ext-MedicationUse2.Author">
          <valueReference>
            <reference value="urn:uuid:36322824-6aed-11ec-0000-020000000000"/>
            <type value="PractitionerRole"/>
            <display value="Healthcare professional (role), Peter van Pulver, Huisartsen, niet nader gespecificeerd, Huisartsenpraktijk Pulver &amp; Partners"/>
          </valueReference>
        </extension>
        <identifier>
          <system value="urn:oid:2.16.840.1.113883.2.4.3.11.999.77.6.1"/>
          <value value="MBH_300_script0_QA1_MGB"/>
        </identifier>
        <status value="active"/>
        <category>
          <coding>
            <system value="http://snomed.info/sct"/>
            <code value="422979000"/>
            <display value="bevinding betreffende gedrag met betrekking tot medicatieregime"/>
          </coding>
        </category>
        <medicationReference>
          <reference value="urn:uuid:44f3f51d-6b3d-11ec-0000-020000000000"/>
          <type value="Medication"/>
          <display value="INNOHEP INJVLST 20000 IE/ML WWSP 0,7ML"/>
        </medicationReference>
        <subject>
          <reference value="urn:uuid:921e6ff8-6b68-11ec-0000-020000000000"/>
          <type value="Patient"/>
          <display value="Patient, G. XXX_Groot"/>
        </subject>
        <effectivePeriod>
          <extension url="http://nictiz.nl/fhir/StructureDefinition/ext-TimeInterval.Duration">
            <valueDuration>
              <value value="5"/>
              <unit value="dag"/>
              <system value="http://unitsofmeasure.org"/>
              <code value="d"/>
            </valueDuration>
          </extension>
          <start value="${DATE, T, D, -20}T00:00:00+02:00"/>
        </effectivePeriod>
        <dateAsserted value="${DATE, T, D, -15}T08:00:00+02:00"/>
        <informationSource>
          <reference value="urn:uuid:921e6ff8-6b68-11ec-0000-020000000000"/>
          <type value="Patient"/>
          <display value="Patient, G. XXX_Groot"/>
        </informationSource>
        <derivedFrom>
          <extension url="http://nictiz.nl/fhir/StructureDefinition/ext-ResourceCategory">
            <valueCodeableConcept>
              <coding>
                <system value="http://snomed.info/sct"/>
                <code value="422037009"/>
                <display value="toedieningsafspraak"/>
              </coding>
            </valueCodeableConcept>
          </extension>
          <type value="MedicationRequest"/>
          <identifier>
            <system value="urn:oid:2.16.840.1.113883.2.4.3.11.999.77.422037009.1"/>
            <value value="MBH_300_script0_QA1_TA"/>
          </identifier>
          <display value="relatie naar toedieningsafspraak"/>
        </derivedFrom>
        <dosage>
          <timing>
            <repeat>
              <frequency value="1"/>
              <period value="1"/>
              <periodUnit value="d"/>
            </repeat>
          </timing>
          <route>
            <coding>
              <system value="urn:oid:2.16.840.1.113883.2.4.4.9"/>
              <code value="21"/>
              <display value="Subcutaan"/>
            </coding>
          </route>
          <doseAndRate>
            <doseQuantity>
              <extension url="http://hl7.org/fhir/StructureDefinition/iso21090-PQ-translation">
                <valueQuantity>
                  <value value="0.7"/>
                  <unit value="milliliter"/>
                  <system value="urn:oid:2.16.840.1.113883.2.4.4.1.900.2"/>
                  <code value="233"/>
                </valueQuantity>
              </extension>
              <value value="0.7"/>
              <unit value="milliliter"/>
              <system value="http://unitsofmeasure.org"/>
              <code value="ml"/>
            </doseQuantity>
          </doseAndRate>
        </dosage>
      </MedicationStatement>
    </resource>
    <request>
      <method value="POST"/>
      <url value="MedicationStatement"/>
    </request>
  </entry>
  <entry>
    <fullUrl value="urn:uuid:053815a6-6b3b-11ec-0000-020000000000"/>
    <resource>
      <MedicationStatement>
        <meta>
          <profile value="http://nictiz.nl/fhir/StructureDefinition/mp-MedicationUse2"/>
        </meta>
        <text>
          <status value="extensions"/>
          <div xmlns="http://www.w3.org/1999/xhtml">
            <table>
              <caption>MedicationStatement. Subject: Patient, G. XXX_Groot. Id: MBH_300_script0_QA2_MGB (urn:oid:2.16.840.1.113883.2.4.3.11.999.77.6.1), Categorie: <span title="bevinding betreffende gedrag met betrekking tot medicatieregime (422979000 - SNOMED CT)">bevinding betreffende gedrag met betrekking tot medicatieregime</span>, Status: actief</caption>
              <tbody>
                <tr>
                  <th>Medicatie</th>
                  <td>ENOXAPARINE BECAT INJVLST 2.000IE (20MG)/0,2ML WW</td>
                </tr>
                <tr>
                  <th>Datum/tijd</th>
                  <td>${DATE, T, D, -10}T00:00:00+02:00 - ${DATE, T, D, -5}T23:59:59+02:00</td>
                </tr>
                <tr>
                  <th>Informant</th>
                  <td>${DATE, T, D, -2}T08:59:59+02:00 - Patient, G. XXX_Groot</td>
                </tr>
                <tr>
                  <th>Ondersteunende informatie</th>
                  <td>relatie naar medicatieafspraak (Id: MBH_300_script0_QA2_MA (urn:oid:2.16.840.1.113883.2.4.3.11.999.77.16076005.1))</td>
                </tr>
                <tr>
                  <th>Dosering</th>
                  <td>
                    <div>Timing: <div>2 maal per dag</div>
                    </div>
                    <div>Toedieningsweg: <span title="Subcutaan (21 - G-Standaard thesaurus subtabel 0007)">Subcutaan</span>
                    </div>
                    <div>Dosering: doseAndRate TODO</div>
                  </td>
                </tr>
              </tbody>
            </table>
          </div>
        </text>
        <extension url="http://nictiz.nl/fhir/StructureDefinition/ext-RenderedDosageInstruction">
          <valueString value="Vanaf &lt;T-10D{00:00:00}&gt; t/m &lt;T-5D{23:59:59}&gt;, 2 maal per dag 1 stuk"/>
        </extension>
        <extension url="http://nictiz.nl/fhir/StructureDefinition/ext-MedicationUse2.Prescriber">
          <valueReference>
            <reference value="urn:uuid:36322824-6aed-11ec-0000-020000000000"/>
            <type value="PractitionerRole"/>
            <display value="Healthcare professional (role), Peter van Pulver, Huisartsen, niet nader gespecificeerd, Huisartsenpraktijk Pulver &amp; Partners"/>
          </valueReference>
        </extension>
        <extension url="http://nictiz.nl/fhir/StructureDefinition/ext-AsAgreedIndicator">
          <valueBoolean value="false"/>
        </extension>
        <extension url="http://nictiz.nl/fhir/StructureDefinition/ext-PharmaceuticalTreatment.Identifier">
          <valueIdentifier>
            <system value="urn:oid:2.16.840.1.113883.2.4.3.11.999.77.1.1"/>
            <value value="MBH_300_script0_QA2"/>
          </valueIdentifier>
        </extension>
        <extension url="http://nictiz.nl/fhir/StructureDefinition/ext-MedicationUse2.Author">
          <valueReference>
            <reference value="urn:uuid:36322824-6aed-11ec-0000-020000000000"/>
            <type value="PractitionerRole"/>
            <display value="Healthcare professional (role), Peter van Pulver, Huisartsen, niet nader gespecificeerd, Huisartsenpraktijk Pulver &amp; Partners"/>
          </valueReference>
        </extension>
        <identifier>
          <system value="urn:oid:2.16.840.1.113883.2.4.3.11.999.77.6.1"/>
          <value value="MBH_300_script0_QA2_MGB"/>
        </identifier>
        <status value="active"/>
        <category>
          <coding>
            <system value="http://snomed.info/sct"/>
            <code value="422979000"/>
            <display value="bevinding betreffende gedrag met betrekking tot medicatieregime"/>
          </coding>
        </category>
        <medicationReference>
          <reference value="urn:uuid:54506004-6abd-11ec-0000-020000000000"/>
          <type value="Medication"/>
          <display value="ENOXAPARINE BECAT INJVLST 2.000IE (20MG)/0,2ML WW"/>
        </medicationReference>
        <subject>
          <reference value="urn:uuid:921e6ff8-6b68-11ec-0000-020000000000"/>
          <type value="Patient"/>
          <display value="Patient, G. XXX_Groot"/>
        </subject>
        <effectivePeriod>
          <start value="${DATE, T, D, -10}T00:00:00+02:00"/>
          <end value="${DATE, T, D, -5}T23:59:59+02:00"/>
        </effectivePeriod>
        <dateAsserted value="${DATE, T, D, -2}T08:59:59+02:00"/>
        <informationSource>
          <reference value="urn:uuid:921e6ff8-6b68-11ec-0000-020000000000"/>
          <type value="Patient"/>
          <display value="Patient, G. XXX_Groot"/>
        </informationSource>
        <derivedFrom>
          <extension url="http://nictiz.nl/fhir/StructureDefinition/ext-ResourceCategory">
            <valueCodeableConcept>
              <coding>
                <system value="http://snomed.info/sct"/>
                <code value="33633005"/>
                <display value="voorschrijven van geneesmiddel"/>
              </coding>
            </valueCodeableConcept>
          </extension>
          <type value="MedicationRequest"/>
          <identifier>
            <system value="urn:oid:2.16.840.1.113883.2.4.3.11.999.77.16076005.1"/>
            <value value="MBH_300_script0_QA2_MA"/>
          </identifier>
          <display value="relatie naar medicatieafspraak"/>
        </derivedFrom>
        <dosage>
          <timing>
            <repeat>
              <frequency value="2"/>
              <period value="1"/>
              <periodUnit value="d"/>
            </repeat>
          </timing>
          <route>
            <coding>
              <system value="urn:oid:2.16.840.1.113883.2.4.4.9"/>
              <code value="21"/>
              <display value="Subcutaan"/>
            </coding>
          </route>
          <doseAndRate>
            <doseQuantity>
              <extension url="http://hl7.org/fhir/StructureDefinition/iso21090-PQ-translation">
                <valueQuantity>
                  <value value="0.2"/>
                  <unit value="milliliter"/>
                  <system value="urn:oid:2.16.840.1.113883.2.4.4.1.900.2"/>
                  <code value="233"/>
                </valueQuantity>
              </extension>
              <value value="0.2"/>
              <unit value="milliliter"/>
              <system value="http://unitsofmeasure.org"/>
              <code value="ml"/>
            </doseQuantity>
          </doseAndRate>
        </dosage>
      </MedicationStatement>
    </resource>
    <request>
      <method value="POST"/>
      <url value="MedicationStatement"/>
    </request>
  </entry>
  <entry>
    <fullUrl value="urn:uuid:e2935e26-6ab7-11ec-0000-020000000000"/>
    <resource>
      <MedicationStatement>
        <meta>
          <profile value="http://nictiz.nl/fhir/StructureDefinition/mp-MedicationUse2"/>
        </meta>
        <text>
          <status value="extensions"/>
          <div xmlns="http://www.w3.org/1999/xhtml">
            <table>
              <caption>MedicationStatement. Subject: Patient, G. XXX_Groot. Id: MBH_300_script0_QA3_MGB (urn:oid:2.16.840.1.113883.2.4.3.11.999.77.6.1), Categorie: <span title="bevinding betreffende gedrag met betrekking tot medicatieregime (422979000 - SNOMED CT)">bevinding betreffende gedrag met betrekking tot medicatieregime</span>, Status: actief</caption>
              <tbody>
                <tr>
                  <th>Medicatie</th>
                  <td>ACENOCOUMAROL AURO TABLET 1MG</td>
                </tr>
                <tr>
                  <th>Datum/tijd</th>
                  <td>${DATE, T, D, -25}T00:00:00+02:00 - ${DATE, T, D, -12}T23:59:59+02:00</td>
                </tr>
                <tr>
                  <th>Informant</th>
                  <td>${DATE, T, D, -11}T08:10:00+02:00 - Patient, G. XXX_Groot</td>
                </tr>
                <tr>
                  <th>Ondersteunende informatie</th>
                  <td>relatie naar medicatieafspraak (Id: MBH_300_script0_QA3_MA (urn:oid:2.16.840.1.113883.2.4.3.11.999.77.16076005.1))</td>
                </tr>
                <tr>
                  <th>Dosering</th>
                  <td>
                    <div>Instructie: <span title="overig (OTH - http://terminology.hl7.org/CodeSystem/v3-NullFlavor)">overig</span>
                    </div>
                    <div>Toedieningsweg: <span title="oraal (9 - G-Standaard thesaurus subtabel 0007)">oraal</span>
                    </div>
                  </td>
                </tr>
              </tbody>
            </table>
          </div>
        </text>
        <extension url="http://nictiz.nl/fhir/StructureDefinition/ext-RenderedDosageInstruction">
          <valueString value="volgens schema trombosedienst"/>
        </extension>
        <extension url="http://nictiz.nl/fhir/StructureDefinition/ext-MedicationUse2.Prescriber">
          <valueReference>
            <reference value="urn:uuid:36322824-6aed-11ec-0000-020000000000"/>
            <type value="PractitionerRole"/>
            <display value="Healthcare professional (role), Peter van Pulver, Huisartsen, niet nader gespecificeerd, Huisartsenpraktijk Pulver &amp; Partners"/>
          </valueReference>
        </extension>
        <extension url="http://nictiz.nl/fhir/StructureDefinition/ext-AsAgreedIndicator">
          <valueBoolean value="true"/>
        </extension>
        <extension url="http://nictiz.nl/fhir/StructureDefinition/ext-PharmaceuticalTreatment.Identifier">
          <valueIdentifier>
            <system value="urn:oid:2.16.840.1.113883.2.4.3.11.999.77.1.1"/>
            <value value="MBH_300_script0_QA3"/>
          </valueIdentifier>
        </extension>
        <extension url="http://nictiz.nl/fhir/StructureDefinition/ext-MedicationUse2.Author">
          <valueReference>
            <reference value="urn:uuid:36322824-6aed-11ec-0000-020000000000"/>
            <type value="PractitionerRole"/>
            <display value="Healthcare professional (role), Peter van Pulver, Huisartsen, niet nader gespecificeerd, Huisartsenpraktijk Pulver &amp; Partners"/>
          </valueReference>
        </extension>
        <identifier>
          <system value="urn:oid:2.16.840.1.113883.2.4.3.11.999.77.6.1"/>
          <value value="MBH_300_script0_QA3_MGB"/>
        </identifier>
        <status value="active"/>
        <category>
          <coding>
            <system value="http://snomed.info/sct"/>
            <code value="422979000"/>
            <display value="bevinding betreffende gedrag met betrekking tot medicatieregime"/>
          </coding>
        </category>
        <medicationReference>
          <reference value="urn:uuid:4a6e2804-6b1d-11ec-0000-020000000000"/>
          <type value="Medication"/>
          <display value="ACENOCOUMAROL AURO TABLET 1MG"/>
        </medicationReference>
        <subject>
          <reference value="urn:uuid:921e6ff8-6b68-11ec-0000-020000000000"/>
          <type value="Patient"/>
          <display value="Patient, G. XXX_Groot"/>
        </subject>
        <effectivePeriod>
          <start value="${DATE, T, D, -25}T00:00:00+02:00"/>
          <end value="${DATE, T, D, -12}T23:59:59+02:00"/>
        </effectivePeriod>
        <dateAsserted value="${DATE, T, D, -11}T08:10:00+02:00"/>
        <informationSource>
          <reference value="urn:uuid:921e6ff8-6b68-11ec-0000-020000000000"/>
          <type value="Patient"/>
          <display value="Patient, G. XXX_Groot"/>
        </informationSource>
        <derivedFrom>
          <extension url="http://nictiz.nl/fhir/StructureDefinition/ext-ResourceCategory">
            <valueCodeableConcept>
              <coding>
                <system value="http://snomed.info/sct"/>
                <code value="33633005"/>
                <display value="voorschrijven van geneesmiddel"/>
              </coding>
            </valueCodeableConcept>
          </extension>
          <type value="MedicationRequest"/>
          <identifier>
            <system value="urn:oid:2.16.840.1.113883.2.4.3.11.999.77.16076005.1"/>
            <value value="MBH_300_script0_QA3_MA"/>
          </identifier>
          <display value="relatie naar medicatieafspraak"/>
        </derivedFrom>
        <dosage>
          <additionalInstruction>
            <coding>
              <system value="http://terminology.hl7.org/CodeSystem/v3-NullFlavor"/>
              <code value="OTH"/>
              <display value="overig"/>
            </coding>
            <text value="Volgens schema trombosedienst"/>
          </additionalInstruction>
          <route>
            <coding>
              <system value="urn:oid:2.16.840.1.113883.2.4.4.9"/>
              <code value="9"/>
              <display value="oraal"/>
            </coding>
          </route>
        </dosage>
      </MedicationStatement>
    </resource>
    <request>
      <method value="POST"/>
      <url value="MedicationStatement"/>
    </request>
  </entry>
  <entry>
    <fullUrl value="urn:uuid:13748cbd-6afa-11ec-0000-020000000000"/>
    <resource>
      <MedicationStatement>
        <meta>
          <profile value="http://nictiz.nl/fhir/StructureDefinition/mp-MedicationUse2"/>
        </meta>
        <text>
          <status value="extensions"/>
          <div xmlns="http://www.w3.org/1999/xhtml">
            <table>
              <caption>MedicationStatement. Subject: Patient, G. XXX_Groot. Id: MBH_300_script0_QA4_MGB (urn:oid:2.16.840.1.113883.2.4.3.11.999.77.6.1), Categorie: <span title="bevinding betreffende gedrag met betrekking tot medicatieregime (422979000 - SNOMED CT)">bevinding betreffende gedrag met betrekking tot medicatieregime</span>, Status: actief</caption>
              <tbody>
                <tr>
                  <th>Medicatie</th>
                  <td>FENPROCOUMON TABLET 3MG</td>
                </tr>
                <tr>
                  <th>Datum/tijd</th>
                  <td>Vanaf ${DATE, T, D, -12}T00:00:00+02:00</td>
                </tr>
                <tr>
                  <th>Informant</th>
                  <td>${DATE, T, D, -4}T09:43:00+02:00 - Patient, G. XXX_Groot</td>
                </tr>
                <tr>
                  <th>Ondersteunende informatie</th>
                  <td>relatie naar toedieningsafspraak (Id: MBH_300_script0_QA4_TA (urn:oid:2.16.840.1.113883.2.4.3.11.999.77.422037009.1))</td>
                </tr>
                <tr>
                  <th>Dosering</th>
                  <td>
                    <div>Instructie: <span title="overig (OTH - http://terminology.hl7.org/CodeSystem/v3-NullFlavor)">overig</span>
                    </div>
                    <div>Toedieningsweg: <span title="oraal (9 - G-Standaard thesaurus subtabel 0007)">oraal</span>
                    </div>
                  </td>
                </tr>
              </tbody>
            </table>
          </div>
        </text>
        <extension url="http://nictiz.nl/fhir/StructureDefinition/ext-RenderedDosageInstruction">
          <valueString value="Volgens schema trombosedienst"/>
        </extension>
        <extension url="http://nictiz.nl/fhir/StructureDefinition/ext-MedicationUse2.Prescriber">
          <valueReference>
            <reference value="urn:uuid:36322824-6aed-11ec-0000-020000000000"/>
            <type value="PractitionerRole"/>
            <display value="Healthcare professional (role), Peter van Pulver, Huisartsen, niet nader gespecificeerd, Huisartsenpraktijk Pulver &amp; Partners"/>
          </valueReference>
        </extension>
        <extension url="http://nictiz.nl/fhir/StructureDefinition/ext-AsAgreedIndicator">
          <valueBoolean value="true"/>
        </extension>
        <extension url="http://nictiz.nl/fhir/StructureDefinition/ext-PharmaceuticalTreatment.Identifier">
          <valueIdentifier>
            <system value="urn:oid:2.16.840.1.113883.2.4.3.11.999.77.1.1"/>
            <value value="MBH_300_script0_QA4"/>
          </valueIdentifier>
        </extension>
        <extension url="http://nictiz.nl/fhir/StructureDefinition/ext-MedicationUse2.Author">
          <valueReference>
            <reference value="urn:uuid:8d3d1824-6aeb-11ec-0000-020000000000"/>
            <type value="PractitionerRole"/>
            <display value="Healthcare professional (role), Tanja de Bakker, Trombosediensten, Trombosedienst Ons Dorp"/>
          </valueReference>
        </extension>
        <identifier>
          <system value="urn:oid:2.16.840.1.113883.2.4.3.11.999.77.6.1"/>
          <value value="MBH_300_script0_QA4_MGB"/>
        </identifier>
        <status value="active"/>
        <category>
          <coding>
            <system value="http://snomed.info/sct"/>
            <code value="422979000"/>
            <display value="bevinding betreffende gedrag met betrekking tot medicatieregime"/>
          </coding>
        </category>
        <medicationReference>
          <reference value="urn:uuid:3e96c11d-6ad5-11ec-0000-020000000000"/>
          <type value="Medication"/>
          <display value="FENPROCOUMON TABLET 3MG"/>
        </medicationReference>
        <subject>
          <reference value="urn:uuid:921e6ff8-6b68-11ec-0000-020000000000"/>
          <type value="Patient"/>
          <display value="Patient, G. XXX_Groot"/>
        </subject>
        <effectivePeriod>
          <start value="${DATE, T, D, -12}T00:00:00+02:00"/>
        </effectivePeriod>
        <dateAsserted value="${DATE, T, D, -4}T09:43:00+02:00"/>
        <informationSource>
          <reference value="urn:uuid:921e6ff8-6b68-11ec-0000-020000000000"/>
          <type value="Patient"/>
          <display value="Patient, G. XXX_Groot"/>
        </informationSource>
        <derivedFrom>
          <extension url="http://nictiz.nl/fhir/StructureDefinition/ext-ResourceCategory">
            <valueCodeableConcept>
              <coding>
                <system value="http://snomed.info/sct"/>
                <code value="422037009"/>
                <display value="toedieningsafspraak"/>
              </coding>
            </valueCodeableConcept>
          </extension>
          <type value="MedicationRequest"/>
          <identifier>
            <system value="urn:oid:2.16.840.1.113883.2.4.3.11.999.77.422037009.1"/>
            <value value="MBH_300_script0_QA4_TA"/>
          </identifier>
          <display value="relatie naar toedieningsafspraak"/>
        </derivedFrom>
        <dosage>
          <additionalInstruction>
            <coding>
              <system value="http://terminology.hl7.org/CodeSystem/v3-NullFlavor"/>
              <code value="OTH"/>
              <display value="overig"/>
            </coding>
            <text value="Volgens schema trombosedienst"/>
          </additionalInstruction>
          <route>
            <coding>
              <system value="urn:oid:2.16.840.1.113883.2.4.4.9"/>
              <code value="9"/>
              <display value="oraal"/>
            </coding>
          </route>
        </dosage>
      </MedicationStatement>
    </resource>
    <request>
      <method value="POST"/>
      <url value="MedicationStatement"/>
    </request>
  </entry>
  <entry>
    <fullUrl value="urn:uuid:921e6ff8-6b68-11ec-0000-020000000000"/>
    <resource>
      <Patient>
        <meta>
          <profile value="http://nictiz.nl/fhir/StructureDefinition/nl-core-Patient"/>
        </meta>
        <text>
          <status value="extensions"/>
          <div xmlns="http://www.w3.org/1999/xhtml">
            <div>Id 999900596 (BSN), <span title="Naamsamenstelling: Eigennaam">G. XXX_Groot</span>, Man, 1 november 1963</div>
          </div>
        </text>
        <identifier>
          <system value="http://fhir.nl/fhir/NamingSystem/bsn"/>
          <value value="999900596"/>
        </identifier>
        <name>
          <extension url="http://hl7.org/fhir/StructureDefinition/humanname-assembly-order">
            <valueCode value="NL1"/>
          </extension>
          <use value="official"/>
          <text value="G. XXX_Groot"/>
          <family value="XXX_Groot">
            <extension url="http://hl7.org/fhir/StructureDefinition/humanname-own-name">
              <valueString value="XXX_Groot"/>
            </extension>
          </family>
          <given value="G.">
            <extension url="http://hl7.org/fhir/StructureDefinition/iso21090-EN-qualifier">
              <valueCode value="IN"/>
            </extension>
          </given>
        </name>
        <gender value="male">
          <extension url="http://nictiz.nl/fhir/StructureDefinition/ext-CodeSpecification">
            <valueCodeableConcept>
              <coding>
                <system value="http://terminology.hl7.org/CodeSystem/v3-AdministrativeGender"/>
                <code value="M"/>
                <display value="Man"/>
              </coding>
            </valueCodeableConcept>
          </extension>
        </gender>
        <birthDate value="1963-11-01"/>
      </Patient>
    </resource>
    <request>
      <method value="POST"/>
      <url value="Patient"/>
    </request>
  </entry>
  <entry>
    <fullUrl value="urn:uuid:36322824-6aed-11ec-0000-020000000000"/>
    <resource>
      <PractitionerRole>
        <meta>
          <profile value="http://nictiz.nl/fhir/StructureDefinition/nl-core-HealthProfessional-PractitionerRole"/>
        </meta>
        <text>
          <status value="extensions"/>
          <div xmlns="http://www.w3.org/1999/xhtml">
            <table>
              <caption>Zorgverlenerrol. </caption>
              <tbody>
                <tr>
                  <th>Zorgverlener</th>
                  <td>
                    <div>Healthcare professional (person), Peter van Pulver</div>
                    <div>Healthcare provider (organization), Huisartsenpraktijk Pulver &amp; Partners</div>
                  </td>
                </tr>
                <tr>
                  <th>Specialisme</th>
                  <td>
                    <span title="Huisartsen, niet nader gespecificeerd (0100 - AGB-medisch specialisme)">Huisartsen, niet nader gespecificeerd</span>
                  </td>
                </tr>
              </tbody>
            </table>
          </div>
        </text>
        <practitioner>
          <reference value="urn:uuid:4a573558-6ad5-11ec-0000-020000000000"/>
          <type value="Practitioner"/>
          <display value="Healthcare professional (person), Peter van Pulver"/>
        </practitioner>
        <organization>
          <reference value="urn:uuid:7fa869d8-6b44-11ec-0000-020000000000"/>
          <type value="Organization"/>
          <display value="Healthcare provider (organization), Huisartsenpraktijk Pulver &amp; Partners"/>
        </organization>
        <specialty>
          <coding>
            <system value="urn:oid:2.16.840.1.113883.2.4.6.7"/>
            <version value="2020-10-23T00:00:00"/>
            <code value="0100"/>
            <display value="Huisartsen, niet nader gespecificeerd"/>
          </coding>
        </specialty>
      </PractitionerRole>
    </resource>
    <request>
      <method value="POST"/>
      <url value="PractitionerRole"/>
    </request>
  </entry>
  <entry>
    <fullUrl value="urn:uuid:4a573558-6ad5-11ec-0000-020000000000"/>
    <resource>
      <Practitioner>
        <meta>
          <profile value="http://nictiz.nl/fhir/StructureDefinition/nl-core-HealthProfessional-Practitioner"/>
        </meta>
        <text>
          <status value="extensions"/>
          <div xmlns="http://www.w3.org/1999/xhtml">
            <div>Id 000001111 (UZI-NR-PERS), Peter van Pulver</div>
          </div>
        </text>
        <identifier>
          <system value="http://fhir.nl/fhir/NamingSystem/uzi-nr-pers"/>
          <value value="000001111"/>
        </identifier>
        <name>
          <use value="official"/>
          <text value="Peter van Pulver"/>
          <family value="van Pulver">
            <extension url="http://hl7.org/fhir/StructureDefinition/humanname-own-prefix">
              <valueString value="van"/>
            </extension>
            <extension url="http://hl7.org/fhir/StructureDefinition/humanname-own-name">
              <valueString value="Pulver"/>
            </extension>
          </family>
          <given value="Peter">
            <extension url="http://hl7.org/fhir/StructureDefinition/iso21090-EN-qualifier">
              <valueCode value="BR"/>
            </extension>
          </given>
        </name>
      </Practitioner>
    </resource>
    <request>
      <method value="POST"/>
      <url value="Practitioner"/>
    </request>
  </entry>
  <entry>
    <fullUrl value="urn:uuid:8d3d1824-6aeb-11ec-0000-020000000000"/>
    <resource>
      <PractitionerRole>
        <meta>
          <profile value="http://nictiz.nl/fhir/StructureDefinition/nl-core-HealthProfessional-PractitionerRole"/>
        </meta>
        <text>
          <status value="extensions"/>
          <div xmlns="http://www.w3.org/1999/xhtml">
            <table>
              <caption>Zorgverlenerrol. </caption>
              <tbody>
                <tr>
                  <th>Zorgverlener</th>
                  <td>
                    <div>Healthcare professional (person), Tanja de Bakker</div>
                    <div>Healthcare provider (organization), Trombosedienst Ons Dorp</div>
                  </td>
                </tr>
                <tr>
                  <th>Specialisme</th>
                  <td>
                    <span title="Trombosediensten (3400 - AGB-medisch specialisme)">Trombosediensten</span>
                  </td>
                </tr>
              </tbody>
            </table>
          </div>
        </text>
        <practitioner>
          <reference value="urn:uuid:7cac7558-6b5d-11ec-0000-020000000000"/>
          <type value="Practitioner"/>
          <display value="Healthcare professional (person), Tanja de Bakker"/>
        </practitioner>
        <organization>
          <reference value="urn:uuid:5bc4856e-6b7b-11ec-0000-020000000000"/>
          <type value="Organization"/>
          <display value="Healthcare provider (organization), Trombosedienst Ons Dorp"/>
        </organization>
        <specialty>
          <coding>
            <system value="urn:oid:2.16.840.1.113883.2.4.6.7"/>
            <version value="2020-10-23T00:00:00"/>
            <code value="3400"/>
            <display value="Trombosediensten"/>
          </coding>
        </specialty>
      </PractitionerRole>
    </resource>
    <request>
      <method value="POST"/>
      <url value="PractitionerRole"/>
    </request>
  </entry>
  <entry>
    <fullUrl value="urn:uuid:7cac7558-6b5d-11ec-0000-020000000000"/>
    <resource>
      <Practitioner>
        <meta>
          <profile value="http://nictiz.nl/fhir/StructureDefinition/nl-core-HealthProfessional-Practitioner"/>
        </meta>
        <text>
          <status value="extensions"/>
          <div xmlns="http://www.w3.org/1999/xhtml">
            <div>Id 222221111 (UZI-NR-PERS), Tanja de Bakker</div>
          </div>
        </text>
        <identifier>
          <system value="http://fhir.nl/fhir/NamingSystem/uzi-nr-pers"/>
          <value value="222221111"/>
        </identifier>
        <name>
          <use value="official"/>
          <text value="Tanja de Bakker"/>
          <family value="de Bakker">
            <extension url="http://hl7.org/fhir/StructureDefinition/humanname-own-prefix">
              <valueString value="de"/>
            </extension>
            <extension url="http://hl7.org/fhir/StructureDefinition/humanname-own-name">
              <valueString value="Bakker"/>
            </extension>
          </family>
          <given value="Tanja">
            <extension url="http://hl7.org/fhir/StructureDefinition/iso21090-EN-qualifier">
              <valueCode value="BR"/>
            </extension>
          </given>
        </name>
      </Practitioner>
    </resource>
    <request>
      <method value="POST"/>
      <url value="Practitioner"/>
    </request>
  </entry>
  <entry>
    <fullUrl value="urn:uuid:7fa869d8-6b44-11ec-0000-020000000000"/>
    <resource>
      <Organization>
        <meta>
          <profile value="http://nictiz.nl/fhir/StructureDefinition/nl-core-HealthcareProvider-Organization"/>
        </meta>
        <text>
          <status value="extensions"/>
          <div xmlns="http://www.w3.org/1999/xhtml">
            <table>
              <caption>Organisatie. Id: 00001111 (URA)</caption>
              <tbody>
                <tr>
                  <th>Naam</th>
                  <td>Huisartsenpraktijk Pulver &amp; Partners</td>
                </tr>
                <tr>
                  <th>Adres</th>
                  <td>Dorpsstraat 1, 1234AA Ons Dorp (Werk)</td>
                </tr>
              </tbody>
            </table>
          </div>
        </text>
        <identifier>
          <system value="http://fhir.nl/fhir/NamingSystem/ura"/>
          <value value="00001111"/>
        </identifier>
        <name value="Huisartsenpraktijk Pulver &amp; Partners"/>
        <address>
          <extension url="http://nictiz.nl/fhir/StructureDefinition/ext-AddressInformation.AddressType">
            <valueCodeableConcept>
              <coding>
                <system value="http://terminology.hl7.org/CodeSystem/v3-AddressUse"/>
                <code value="WP"/>
                <display value="Werkadres"/>
              </coding>
            </valueCodeableConcept>
          </extension>
          <use value="work"/>
          <line value="Dorpsstraat 1">
            <extension url="http://hl7.org/fhir/StructureDefinition/iso21090-ADXP-streetName">
              <valueString value="Dorpsstraat"/>
            </extension>
            <extension url="http://hl7.org/fhir/StructureDefinition/iso21090-ADXP-houseNumber">
              <valueString value="1"/>
            </extension>
          </line>
          <city value="Ons Dorp"/>
          <postalCode value="1234AA"/>
        </address>
      </Organization>
    </resource>
    <request>
      <method value="POST"/>
      <url value="Organization"/>
    </request>
  </entry>
  <entry>
    <fullUrl value="urn:uuid:5bc4856e-6b7b-11ec-0000-020000000000"/>
    <resource>
      <Organization>
        <meta>
          <profile value="http://nictiz.nl/fhir/StructureDefinition/nl-core-HealthcareProvider-Organization"/>
        </meta>
        <text>
          <status value="extensions"/>
          <div xmlns="http://www.w3.org/1999/xhtml">
            <table>
              <caption>Organisatie. Id: 11112222 (URA)</caption>
              <tbody>
                <tr>
                  <th>Naam</th>
                  <td>Trombosedienst Ons Dorp</td>
                </tr>
                <tr>
                  <th>Type</th>
                  <td>
                    <span title="Trombosediensten (3400 - AGB-medisch specialisme)">Trombosediensten</span>
                  </td>
                </tr>
                <tr>
                  <th>Adres</th>
                  <td>Kerkstraat 28 d, 1332GH Ons Dorp (Werk)</td>
                </tr>
              </tbody>
            </table>
          </div>
        </text>
        <identifier>
          <system value="http://fhir.nl/fhir/NamingSystem/ura"/>
          <value value="11112222"/>
        </identifier>
        <type>
          <coding>
            <system value="urn:oid:2.16.840.1.113883.2.4.6.7"/>
            <version value="2020-10-23T00:00:00"/>
            <code value="3400"/>
            <display value="Trombosediensten"/>
          </coding>
        </type>
        <name value="Trombosedienst Ons Dorp"/>
        <address>
          <extension url="http://nictiz.nl/fhir/StructureDefinition/ext-AddressInformation.AddressType">
            <valueCodeableConcept>
              <coding>
                <system value="http://terminology.hl7.org/CodeSystem/v3-AddressUse"/>
                <code value="WP"/>
                <display value="Werkadres"/>
              </coding>
            </valueCodeableConcept>
          </extension>
          <use value="work"/>
          <line value="Kerkstraat 28 d">
            <extension url="http://hl7.org/fhir/StructureDefinition/iso21090-ADXP-streetName">
              <valueString value="Kerkstraat"/>
            </extension>
            <extension url="http://hl7.org/fhir/StructureDefinition/iso21090-ADXP-houseNumber">
              <valueString value="28"/>
            </extension>
            <extension url="http://hl7.org/fhir/StructureDefinition/iso21090-ADXP-buildingNumberSuffix">
              <valueString value="d"/>
            </extension>
          </line>
          <city value="Ons Dorp"/>
          <postalCode value="1332GH"/>
        </address>
      </Organization>
    </resource>
    <request>
      <method value="POST"/>
      <url value="Organization"/>
    </request>
  </entry>
  <entry>
    <fullUrl value="urn:uuid:4a6e2804-6b1d-11ec-0000-020000000000"/>
    <resource>
      <Medication>
        <meta>
          <profile value="http://nictiz.nl/fhir/StructureDefinition/mp-PharmaceuticalProduct"/>
        </meta>
        <text>
          <status value="extensions"/>
          <div xmlns="http://www.w3.org/1999/xhtml">
            <table>
              <tbody>
                <tr>
                  <th>Code</th>
                  <td>
                    <span title="ACENOCOUMAROL AURO TABLET 1MG (1101196 - G-Standaard HPK)">ACENOCOUMAROL AURO TABLET 1MG</span>
                  </td>
                </tr>
              </tbody>
            </table>
          </div>
        </text>
        <code>
          <coding>
            <system value="urn:oid:2.16.840.1.113883.2.4.4.7"/>
            <code value="1101196"/>
            <display value="ACENOCOUMAROL AURO TABLET 1MG"/>
            <userSelected value="true"/>
          </coding>
          <coding>
            <system value="urn:oid:2.16.840.1.113883.2.4.4.10"/>
            <code value="7323"/>
            <display value="ACENOCOUMAROL TABLET 1MG"/>
          </coding>
          <coding>
            <system value="urn:oid:2.16.840.1.113883.2.4.4.1"/>
            <code value="20303"/>
            <display value="ACENOCOUMAROL TABLET 1MG"/>
          </coding>
          <text value="ACENOCOUMAROL AURO TABLET 1MG"/>
        </code>
      </Medication>
    </resource>
    <request>
      <method value="POST"/>
      <url value="Medication"/>
    </request>
  </entry>
  <entry>
    <fullUrl value="urn:uuid:54506004-6abd-11ec-0000-020000000000"/>
    <resource>
      <Medication>
        <meta>
          <profile value="http://nictiz.nl/fhir/StructureDefinition/mp-PharmaceuticalProduct"/>
        </meta>
        <text>
          <status value="extensions"/>
          <div xmlns="http://www.w3.org/1999/xhtml">
            <table>
              <tbody>
                <tr>
                  <th>Code</th>
                  <td>
                    <span title="ENOXAPARINE BECAT INJVLST 2.000IE (20MG)/0,2ML WW (2807815 - G-Standaard HPK)">ENOXAPARINE BECAT INJVLST 2.000IE (20MG)/0,2ML WW</span>
                  </td>
                </tr>
              </tbody>
            </table>
          </div>
        </text>
        <code>
          <coding>
            <system value="urn:oid:2.16.840.1.113883.2.4.4.7"/>
            <code value="2807815"/>
            <display value="ENOXAPARINE BECAT INJVLST 2.000IE (20MG)/0,2ML WW"/>
            <userSelected value="true"/>
          </coding>
          <coding>
            <system value="urn:oid:2.16.840.1.113883.2.4.4.10"/>
            <code value="146676"/>
            <display value="ENOXAPARINE INJ SP 2000IE(20MG)=0,2ML(10.000IE/ML)"/>
          </coding>
          <coding>
            <system value="urn:oid:2.16.840.1.113883.2.4.4.1"/>
            <code value="171816"/>
            <display value="ENOXAPARINE INJVLST 10.000IE/ML (100MG/ML)"/>
          </coding>
          <text value="ENOXAPARINE BECAT INJVLST 2.000IE (20MG)/0,2ML WW"/>
        </code>
      </Medication>
    </resource>
    <request>
      <method value="POST"/>
      <url value="Medication"/>
    </request>
  </entry>
  <entry>
    <fullUrl value="urn:uuid:3e96c11d-6ad5-11ec-0000-020000000000"/>
    <resource>
      <Medication>
        <meta>
          <profile value="http://nictiz.nl/fhir/StructureDefinition/mp-PharmaceuticalProduct"/>
        </meta>
        <text>
          <status value="extensions"/>
          <div xmlns="http://www.w3.org/1999/xhtml">
            <table>
              <tbody>
                <tr>
                  <th>Code</th>
                  <td>
                    <span title="FENPROCOUMON TABLET 3MG (1119265 - G-Standaard HPK)">FENPROCOUMON TABLET 3MG</span>
                  </td>
                </tr>
              </tbody>
            </table>
          </div>
        </text>
        <code>
          <coding>
            <system value="urn:oid:2.16.840.1.113883.2.4.4.7"/>
            <code value="1119265"/>
            <display value="FENPROCOUMON TABLET 3MG"/>
            <userSelected value="true"/>
          </coding>
          <coding>
            <system value="urn:oid:2.16.840.1.113883.2.4.4.10"/>
            <code value="1783"/>
            <display value="FENPROCOUMON TABLET 3MG"/>
          </coding>
          <coding>
            <system value="urn:oid:2.16.840.1.113883.2.4.4.1"/>
            <code value="6637"/>
            <display value="FENPROCOUMON TABLET 3MG"/>
          </coding>
          <text value="FENPROCOUMON TABLET 3MG"/>
        </code>
      </Medication>
    </resource>
    <request>
      <method value="POST"/>
      <url value="Medication"/>
    </request>
  </entry>
  <entry>
    <fullUrl value="urn:uuid:44f3f51d-6b3d-11ec-0000-020000000000"/>
    <resource>
      <Medication>
        <meta>
          <profile value="http://nictiz.nl/fhir/StructureDefinition/mp-PharmaceuticalProduct"/>
        </meta>
        <text>
          <status value="extensions"/>
          <div xmlns="http://www.w3.org/1999/xhtml">
            <table>
              <tbody>
                <tr>
                  <th>Code</th>
                  <td>
                    <span title="INNOHEP INJVLST 20000 IE/ML WWSP 0,7ML (1108751 - G-Standaard HPK)">INNOHEP INJVLST 20000 IE/ML WWSP 0,7ML</span>
                  </td>
                </tr>
              </tbody>
            </table>
          </div>
        </text>
        <code>
          <coding>
            <system value="urn:oid:2.16.840.1.113883.2.4.4.7"/>
            <code value="1108751"/>
            <display value="INNOHEP INJVLST 20000 IE/ML WWSP 0,7ML"/>
            <userSelected value="true"/>
          </coding>
          <coding>
            <system value="urn:oid:2.16.840.1.113883.2.4.4.10"/>
            <code value="49255"/>
            <display value="TINZAPARINE INJVL WWSP 14000IE=0,7ML (20.000IE/ML)"/>
          </coding>
          <coding>
            <system value="urn:oid:2.16.840.1.113883.2.4.4.1"/>
            <code value="103888"/>
            <display value="TINZAPARINE INJVLST 20.000IE/ML"/>
          </coding>
          <text value="INNOHEP INJVLST 20000 IE/ML WWSP 0,7ML"/>
        </code>
      </Medication>
    </resource>
    <request>
      <method value="POST"/>
      <url value="Medication"/>
    </request>
  </entry>
</Bundle>
