<Bundle xmlns="http://hl7.org/fhir">
  <id value="mg-mp-mg-kwal-MA-script1-v30"/>
  <type value="transaction"/>
  <entry>
    <fullUrl value="urn:uuid:aa646fab-6b73-11ec-0000-020000000000"/>
    <resource>
      <MedicationRequest>
        <meta>
          <profile value="http://nictiz.nl/fhir/StructureDefinition/mp-MedicationAgreement"/>
        </meta>
        <text>
          <status value="extensions"/>
          <div xmlns="http://www.w3.org/1999/xhtml">
            <table>
              <caption>MedicationRequest. Subject: Patient, H. de XXX_Huyser. Id: MBH_300_SCRIPT1_MA (urn:oid:2.16.840.1.113883.2.4.3.11.999.77.16076005.1), Categorie: <span title="voorschrijven van geneesmiddel (33633005 - SNOMED CT)">voorschrijven van geneesmiddel</span>, Status: onbekend<span style="display: block;">Intentie: aanvraag</span>
                <span style="display: block;">Aangevraagd door: Healthcare professional (role), Peter van Pulver, Huisartsen, niet nader gespecificeerd, Huisartsenpraktijk Pulver &amp; Partners</span>
              </caption>
              <tbody>
                <tr>
                  <th>Medicatie</th>
                  <td>CAPECITABINE TABLET FO 500MG</td>
                </tr>
                <tr>
                  <th>Doseerinstructie</th>
                  <td>
                    <div>Timing: <div>14 dag09:00:00, 21:00:00. Tijden zo precies mogelijk aanhouden</div>
                    </div>
                    <div>Toedieningsweg: <span title="oraal (9 - G-Standaard thesaurus subtabel 0007)">oraal</span>
                    </div>
                    <div>Dosering: doseAndRate TODO</div>
                  </td>
                </tr>
              </tbody>
            </table>
          </div>
        </text>
        <extension url="http://nictiz.nl/fhir/StructureDefinition/ext-RegistrationDateTime">
          <valueDateTime value="${DATE, T, D, +0}T08:20:00+02:00"/>
        </extension>
        <extension url="http://nictiz.nl/fhir/StructureDefinition/ext-RenderedDosageInstruction">
          <valueString value="Vanaf &lt;T-10D{00:00:00}&gt; t/m &lt;T+137D{23:59:59}&gt;, 2 maal daags 2500mg, oraal."/>
        </extension>
        <extension url="http://nictiz.nl/fhir/StructureDefinition/ext-TimeInterval.Period">
          <valuePeriod>
            <extension url="http://nictiz.nl/fhir/StructureDefinition/ext-TimeInterval.Duration">
              <valueDuration>
                <value value="21"/>
                <unit value="week"/>
                <system value="http://unitsofmeasure.org"/>
                <code value="wk"/>
              </valueDuration>
            </extension>
            <start value="${DATE, T, D, +0}T00:00:00+02:00"/>
          </valuePeriod>
        </extension>
        <extension url="http://nictiz.nl/fhir/StructureDefinition/ext-PharmaceuticalTreatment.Identifier">
          <valueIdentifier>
            <system value="urn:oid:2.16.840.1.113883.2.4.3.11.999.77.1.1"/>
            <value value="MBH_300_SCRIPT1"/>
          </valueIdentifier>
        </extension>
        <modifierExtension url="http://nictiz.nl/fhir/StructureDefinition/ext-InstructionsForUse.RepeatPeriodCyclicalSchedule">
          <valueDuration>
            <value value="21"/>
            <unit value="dag"/>
            <system value="http://unitsofmeasure.org"/>
            <code value="d"/>
          </valueDuration>
        </modifierExtension>
        <identifier>
          <system value="urn:oid:2.16.840.1.113883.2.4.3.11.999.77.16076005.1"/>
          <value value="MBH_300_SCRIPT1_MA"/>
        </identifier>
        <status value="unknown"/>
        <intent value="order"/>
        <category>
          <coding>
            <system value="http://snomed.info/sct"/>
            <code value="33633005"/>
            <display value="voorschrijven van geneesmiddel"/>
          </coding>
        </category>
        <medicationReference>
          <reference value="urn:uuid:8f94fd04-6b68-11ec-0000-020000000000"/>
          <type value="Medication"/>
          <display value="CAPECITABINE TABLET FO 500MG"/>
        </medicationReference>
        <subject>
          <reference value="urn:uuid:0a91b07e-6b2e-11ec-0000-020000000000"/>
          <type value="Patient"/>
          <display value="Patient, H. de XXX_Huyser"/>
        </subject>
        <requester>
          <reference value="urn:uuid:36322824-6aed-11ec-0000-020000000000"/>
          <type value="PractitionerRole"/>
          <display value="Healthcare professional (role), Peter van Pulver, Huisartsen, niet nader gespecificeerd, Huisartsenpraktijk Pulver &amp; Partners"/>
        </requester>
        <dosageInstruction>
          <timing>
            <repeat>
              <extension url="http://hl7.org/fhir/StructureDefinition/timing-exact">
                <valueBoolean value="true"/>
              </extension>
              <boundsDuration>
                <value value="14"/>
                <unit value="dag"/>
                <system value="http://unitsofmeasure.org"/>
                <code value="d"/>
              </boundsDuration>
              <timeOfDay value="09:00:00"/>
              <timeOfDay value="21:00:00"/>
            </repeat>
          </timing>
          <route>
            <coding>
              <system value="urn:oid:2.16.840.1.113883.2.4.4.9"/>
              <code value="9"/>
              <display value="oraal"/>
            </coding>
          </route>
          <doseAndRate>
            <doseQuantity>
              <extension url="http://hl7.org/fhir/StructureDefinition/iso21090-PQ-translation">
                <valueQuantity>
                  <value value="4"/>
                  <unit value="stuk"/>
                  <system value="urn:oid:2.16.840.1.113883.2.4.4.1.900.2"/>
                  <code value="245"/>
                </valueQuantity>
              </extension>
              <value value="4"/>
              <unit value="stuk"/>
              <system value="http://unitsofmeasure.org"/>
              <code value="1"/>
            </doseQuantity>
          </doseAndRate>
        </dosageInstruction>
      </MedicationRequest>
    </resource>
    <request>
      <method value="POST"/>
      <url value="MedicationRequest"/>
    </request>
  </entry>
  <entry>
    <fullUrl value="urn:uuid:198f09ab-6b45-11ec-0000-020000000000"/>
    <resource>
      <MedicationRequest>
        <meta>
          <profile value="http://nictiz.nl/fhir/StructureDefinition/mp-MedicationAgreement"/>
        </meta>
        <text>
          <status value="extensions"/>
          <div xmlns="http://www.w3.org/1999/xhtml">
            <table>
              <caption>MedicationRequest. Subject: Patient, H. de XXX_Huyser. Id: MBH_300_SCRIPT1_MA_STOP (urn:oid:2.16.840.1.113883.2.4.3.11.999.77.16076005.1), Categorie: <span title="voorschrijven van geneesmiddel (33633005 - SNOMED CT)">voorschrijven van geneesmiddel</span>, Status: onbekend<span style="display: block;">Intentie: aanvraag</span>
                <span style="display: block;">Aangevraagd door: Healthcare professional (role), Peter van Pulver, Huisartsen, niet nader gespecificeerd, Huisartsenpraktijk Pulver &amp; Partners</span>
              </caption>
              <tbody>
                <tr>
                  <th>Medicatie</th>
                  <td>CAPECITABINE TABLET FO 500MG</td>
                </tr>
                <tr>
                  <th>Doseerinstructie</th>
                  <td>
                    <div>Timing: <div>14 dag09:00:00, 21:00:00. Tijden zo precies mogelijk aanhouden</div>
                    </div>
                    <div>Toedieningsweg: <span title="oraal (9 - G-Standaard thesaurus subtabel 0007)">oraal</span>
                    </div>
                    <div>Dosering: doseAndRate TODO</div>
                  </td>
                </tr>
              </tbody>
            </table>
          </div>
        </text>
        <extension url="http://nictiz.nl/fhir/StructureDefinition/ext-RegistrationDateTime">
          <valueDateTime value="${DATE, T, D, +20}T07:20:00+02:00"/>
        </extension>
        <extension url="http://nictiz.nl/fhir/StructureDefinition/ext-RenderedDosageInstruction">
          <valueString value="Wordt gegenereerd"/>
        </extension>
        <extension url="http://nictiz.nl/fhir/StructureDefinition/ext-TimeInterval.Period">
          <valuePeriod>
            <start value="${DATE, T, D, +0}T00:00:00+02:00"/>
            <end value="${DATE, T, D, +20}T23:59:59+02:00"/>
          </valuePeriod>
        </extension>
        <extension url="http://nictiz.nl/fhir/StructureDefinition/ext-PharmaceuticalTreatment.Identifier">
          <valueIdentifier>
            <system value="urn:oid:2.16.840.1.113883.2.4.3.11.999.77.1.1"/>
            <value value="MBH_300_SCRIPT1"/>
          </valueIdentifier>
        </extension>
        <modifierExtension url="http://nictiz.nl/fhir/StructureDefinition/ext-InstructionsForUse.RepeatPeriodCyclicalSchedule">
          <valueDuration>
            <value value="21"/>
            <unit value="dag"/>
            <system value="http://unitsofmeasure.org"/>
            <code value="d"/>
          </valueDuration>
        </modifierExtension>
        <modifierExtension url="http://nictiz.nl/fhir/StructureDefinition/ext-StopType">
          <valueCodeableConcept>
            <coding>
              <system value="http://snomed.info/sct"/>
              <code value="410546004"/>
              <display value="stopgezet"/>
            </coding>
          </valueCodeableConcept>
        </modifierExtension>
        <identifier>
          <system value="urn:oid:2.16.840.1.113883.2.4.3.11.999.77.16076005.1"/>
          <value value="MBH_300_SCRIPT1_MA_STOP"/>
        </identifier>
        <status value="unknown"/>
        <intent value="order"/>
        <category>
          <coding>
            <system value="http://snomed.info/sct"/>
            <code value="33633005"/>
            <display value="voorschrijven van geneesmiddel"/>
          </coding>
        </category>
        <medicationReference>
          <reference value="urn:uuid:8f94fd04-6b68-11ec-0000-020000000000"/>
          <type value="Medication"/>
          <display value="CAPECITABINE TABLET FO 500MG"/>
        </medicationReference>
        <subject>
          <reference value="urn:uuid:0a91b07e-6b2e-11ec-0000-020000000000"/>
          <type value="Patient"/>
          <display value="Patient, H. de XXX_Huyser"/>
        </subject>
        <requester>
          <reference value="urn:uuid:36322824-6aed-11ec-0000-020000000000"/>
          <type value="PractitionerRole"/>
          <display value="Healthcare professional (role), Peter van Pulver, Huisartsen, niet nader gespecificeerd, Huisartsenpraktijk Pulver &amp; Partners"/>
        </requester>
        <dosageInstruction>
          <timing>
            <repeat>
              <extension url="http://hl7.org/fhir/StructureDefinition/timing-exact">
                <valueBoolean value="true"/>
              </extension>
              <boundsDuration>
                <value value="14"/>
                <unit value="dag"/>
                <system value="http://unitsofmeasure.org"/>
                <code value="d"/>
              </boundsDuration>
              <timeOfDay value="09:00:00"/>
              <timeOfDay value="21:00:00"/>
            </repeat>
          </timing>
          <route>
            <coding>
              <system value="urn:oid:2.16.840.1.113883.2.4.4.9"/>
              <code value="9"/>
              <display value="oraal"/>
            </coding>
          </route>
          <doseAndRate>
            <doseQuantity>
              <extension url="http://hl7.org/fhir/StructureDefinition/iso21090-PQ-translation">
                <valueQuantity>
                  <value value="4"/>
                  <unit value="stuk"/>
                  <system value="urn:oid:2.16.840.1.113883.2.4.4.1.900.2"/>
                  <code value="245"/>
                </valueQuantity>
              </extension>
              <value value="4"/>
              <unit value="stuk"/>
              <system value="http://unitsofmeasure.org"/>
              <code value="1"/>
            </doseQuantity>
          </doseAndRate>
        </dosageInstruction>
        <priorPrescription>
          <type value="MedicationRequest"/>
          <identifier>
            <system value="urn:oid:2.16.840.1.113883.2.4.3.11.999.77.16076005.1"/>
            <value value="MBH_300_SCRIPT1_MA"/>
          </identifier>
          <display value="relatie naar medicatieafspraak: MBH_300_SCRIPT1_MA || 2.16.840.1.113883.2.4.3.11.999.77.16076005.1"/>
        </priorPrescription>
      </MedicationRequest>
    </resource>
    <request>
      <method value="POST"/>
      <url value="MedicationRequest"/>
    </request>
  </entry>
  <entry>
    <fullUrl value="urn:uuid:7e0d4cab-6aac-11ec-0000-020000000000"/>
    <resource>
      <MedicationRequest>
        <meta>
          <profile value="http://nictiz.nl/fhir/StructureDefinition/mp-MedicationAgreement"/>
        </meta>
        <text>
          <status value="extensions"/>
          <div xmlns="http://www.w3.org/1999/xhtml">
            <table>
              <caption>MedicationRequest. Subject: Patient, H. de XXX_Huyser. Id: MBH_300_SCRIPT1_MA_WIJZIGING (urn:oid:2.16.840.1.113883.2.4.3.11.999.77.16076005.1), Categorie: <span title="voorschrijven van geneesmiddel (33633005 - SNOMED CT)">voorschrijven van geneesmiddel</span>, Status: onbekend<span style="display: block;">Intentie: aanvraag</span>
                <span style="display: block;">Aangevraagd door: Healthcare professional (role), Peter van Pulver, Huisartsen, niet nader gespecificeerd, Huisartsenpraktijk Pulver &amp; Partners</span>
              </caption>
              <tbody>
                <tr>
                  <th>Medicatie</th>
                  <td>CAPECITABINE TABLET FO 500MG</td>
                </tr>
                <tr>
                  <th>Reden</th>
                  <td>
                    <span title="gebrek aan geneesmiddeleffect (58848006 - SNOMED CT)">gebrek aan geneesmiddeleffect</span>
                  </td>
                </tr>
                <tr>
                  <th>Doseerinstructie</th>
                  <td>
                    <div>Timing: <div>14 dag09:00:00, 21:00:00. Tijden zo precies mogelijk aanhouden</div>
                    </div>
                    <div>Toedieningsweg: <span title="oraal (9 - G-Standaard thesaurus subtabel 0007)">oraal</span>
                    </div>
                    <div>Dosering: doseAndRate TODO</div>
                  </td>
                </tr>
              </tbody>
            </table>
          </div>
        </text>
        <extension url="http://nictiz.nl/fhir/StructureDefinition/ext-RegistrationDateTime">
          <valueDateTime value="${DATE, T, D, +20}T07:20:00+02:00"/>
        </extension>
        <extension url="http://nictiz.nl/fhir/StructureDefinition/ext-RenderedDosageInstruction">
          <valueString value="Vanaf &lt;T+13D{00:00:00}&gt; t/m &lt;T+137D{23:59:59}&gt;, 2 maal daags 2000mg, oraal."/>
        </extension>
        <extension url="http://nictiz.nl/fhir/StructureDefinition/ext-TimeInterval.Period">
          <valuePeriod>
            <extension url="http://nictiz.nl/fhir/StructureDefinition/ext-TimeInterval.Duration">
              <valueDuration>
                <value value="18"/>
                <unit value="week"/>
                <system value="http://unitsofmeasure.org"/>
                <code value="wk"/>
              </valueDuration>
            </extension>
            <start value="${DATE, T, D, +21}T00:00:00+02:00"/>
          </valuePeriod>
        </extension>
        <extension url="http://nictiz.nl/fhir/StructureDefinition/ext-PharmaceuticalTreatment.Identifier">
          <valueIdentifier>
            <system value="urn:oid:2.16.840.1.113883.2.4.3.11.999.77.1.1"/>
            <value value="MBH_300_SCRIPT1"/>
          </valueIdentifier>
        </extension>
        <modifierExtension url="http://nictiz.nl/fhir/StructureDefinition/ext-InstructionsForUse.RepeatPeriodCyclicalSchedule">
          <valueDuration>
            <value value="21"/>
            <unit value="dag"/>
            <system value="http://unitsofmeasure.org"/>
            <code value="d"/>
          </valueDuration>
        </modifierExtension>
        <identifier>
          <system value="urn:oid:2.16.840.1.113883.2.4.3.11.999.77.16076005.1"/>
          <value value="MBH_300_SCRIPT1_MA_WIJZIGING"/>
        </identifier>
        <status value="unknown"/>
        <intent value="order"/>
        <category>
          <coding>
            <system value="http://snomed.info/sct"/>
            <code value="33633005"/>
            <display value="voorschrijven van geneesmiddel"/>
          </coding>
        </category>
        <medicationReference>
          <reference value="urn:uuid:8f94fd04-6b68-11ec-0000-020000000000"/>
          <type value="Medication"/>
          <display value="CAPECITABINE TABLET FO 500MG"/>
        </medicationReference>
        <subject>
          <reference value="urn:uuid:0a91b07e-6b2e-11ec-0000-020000000000"/>
          <type value="Patient"/>
          <display value="Patient, H. de XXX_Huyser"/>
        </subject>
        <requester>
          <reference value="urn:uuid:36322824-6aed-11ec-0000-020000000000"/>
          <type value="PractitionerRole"/>
          <display value="Healthcare professional (role), Peter van Pulver, Huisartsen, niet nader gespecificeerd, Huisartsenpraktijk Pulver &amp; Partners"/>
        </requester>
        <reasonCode>
          <coding>
            <system value="http://snomed.info/sct"/>
            <code value="58848006"/>
            <display value="gebrek aan geneesmiddeleffect"/>
          </coding>
        </reasonCode>
        <dosageInstruction>
          <timing>
            <repeat>
              <extension url="http://hl7.org/fhir/StructureDefinition/timing-exact">
                <valueBoolean value="true"/>
              </extension>
              <boundsDuration>
                <value value="14"/>
                <unit value="dag"/>
                <system value="http://unitsofmeasure.org"/>
                <code value="d"/>
              </boundsDuration>
              <timeOfDay value="09:00:00"/>
              <timeOfDay value="21:00:00"/>
            </repeat>
          </timing>
          <route>
            <coding>
              <system value="urn:oid:2.16.840.1.113883.2.4.4.9"/>
              <code value="9"/>
              <display value="oraal"/>
            </coding>
          </route>
          <doseAndRate>
            <doseQuantity>
              <extension url="http://hl7.org/fhir/StructureDefinition/iso21090-PQ-translation">
                <valueQuantity>
                  <value value="5"/>
                  <unit value="stuk"/>
                  <system value="urn:oid:2.16.840.1.113883.2.4.4.1.900.2"/>
                  <code value="245"/>
                </valueQuantity>
              </extension>
              <value value="5"/>
              <unit value="stuk"/>
              <system value="http://unitsofmeasure.org"/>
              <code value="1"/>
            </doseQuantity>
          </doseAndRate>
        </dosageInstruction>
        <priorPrescription>
          <type value="MedicationRequest"/>
          <identifier>
            <system value="urn:oid:2.16.840.1.113883.2.4.3.11.999.77.16076005.1"/>
            <value value="MBH_300_SCRIPT1_MA"/>
          </identifier>
          <display value="relatie naar medicatieafspraak: MBH_300_SCRIPT1_MA || 2.16.840.1.113883.2.4.3.11.999.77.16076005.1"/>
        </priorPrescription>
      </MedicationRequest>
    </resource>
    <request>
      <method value="POST"/>
      <url value="MedicationRequest"/>
    </request>
  </entry>
  <entry>
    <fullUrl value="urn:uuid:0a91b07e-6b2e-11ec-0000-020000000000"/>
    <resource>
      <Patient>
        <meta>
          <profile value="http://nictiz.nl/fhir/StructureDefinition/nl-core-Patient"/>
        </meta>
        <text>
          <status value="extensions"/>
          <div xmlns="http://www.w3.org/1999/xhtml">
            <div>Id 999900663 (BSN), <span title="Naamsamenstelling: Eigennaam">H. de XXX_Huyser</span>, Man, 7 november 1963</div>
          </div>
        </text>
        <identifier>
          <system value="http://fhir.nl/fhir/NamingSystem/bsn"/>
          <value value="999900663"/>
        </identifier>
        <name>
          <extension url="http://hl7.org/fhir/StructureDefinition/humanname-assembly-order">
            <valueCode value="NL1"/>
          </extension>
          <use value="official"/>
          <text value="H. de XXX_Huyser"/>
          <family value="de XXX_Huyser">
            <extension url="http://hl7.org/fhir/StructureDefinition/humanname-own-prefix">
              <valueString value="de"/>
            </extension>
            <extension url="http://hl7.org/fhir/StructureDefinition/humanname-own-name">
              <valueString value="XXX_Huyser"/>
            </extension>
          </family>
          <given value="H.">
            <extension url="http://hl7.org/fhir/StructureDefinition/iso21090-EN-qualifier">
              <valueCode value="IN"/>
            </extension>
          </given>
        </name>
        <gender value="male">
          <extension url="http://nictiz.nl/fhir/StructureDefinition/ext-CodeSpecification">
            <valueCodeableConcept>
              <coding>
                <system value="http://terminology.hl7.org/CodeSystem/v3-AdministrativeGender"/>
                <code value="M"/>
                <display value="Man"/>
              </coding>
            </valueCodeableConcept>
          </extension>
        </gender>
        <birthDate value="1963-11-07"/>
      </Patient>
    </resource>
    <request>
      <method value="POST"/>
      <url value="Patient"/>
    </request>
  </entry>
  <entry>
    <fullUrl value="urn:uuid:36322824-6aed-11ec-0000-020000000000"/>
    <resource>
      <PractitionerRole>
        <meta>
          <profile value="http://nictiz.nl/fhir/StructureDefinition/nl-core-HealthProfessional-PractitionerRole"/>
        </meta>
        <text>
          <status value="extensions"/>
          <div xmlns="http://www.w3.org/1999/xhtml">
            <table>
              <caption>Zorgverlenerrol. </caption>
              <tbody>
                <tr>
                  <th>Zorgverlener</th>
                  <td>
                    <div>Healthcare professional (person), Peter van Pulver</div>
                    <div>Healthcare provider (organization), Huisartsenpraktijk Pulver &amp; Partners</div>
                  </td>
                </tr>
                <tr>
                  <th>Specialisme</th>
                  <td>
                    <span title="Huisartsen, niet nader gespecificeerd (0100 - AGB-medisch specialisme)">Huisartsen, niet nader gespecificeerd</span>
                  </td>
                </tr>
              </tbody>
            </table>
          </div>
        </text>
        <practitioner>
          <reference value="urn:uuid:4a573558-6ad5-11ec-0000-020000000000"/>
          <type value="Practitioner"/>
          <display value="Healthcare professional (person), Peter van Pulver"/>
        </practitioner>
        <organization>
          <reference value="urn:uuid:7fa869d8-6b44-11ec-0000-020000000000"/>
          <type value="Organization"/>
          <display value="Healthcare provider (organization), Huisartsenpraktijk Pulver &amp; Partners"/>
        </organization>
        <specialty>
          <coding>
            <system value="urn:oid:2.16.840.1.113883.2.4.6.7"/>
            <version value="2020-10-23T00:00:00"/>
            <code value="0100"/>
            <display value="Huisartsen, niet nader gespecificeerd"/>
          </coding>
        </specialty>
      </PractitionerRole>
    </resource>
    <request>
      <method value="POST"/>
      <url value="PractitionerRole"/>
    </request>
  </entry>
  <entry>
    <fullUrl value="urn:uuid:4a573558-6ad5-11ec-0000-020000000000"/>
    <resource>
      <Practitioner>
        <meta>
          <profile value="http://nictiz.nl/fhir/StructureDefinition/nl-core-HealthProfessional-Practitioner"/>
        </meta>
        <text>
          <status value="extensions"/>
          <div xmlns="http://www.w3.org/1999/xhtml">
            <div>Id 000001111 (UZI-NR-PERS), Peter van Pulver</div>
          </div>
        </text>
        <identifier>
          <system value="http://fhir.nl/fhir/NamingSystem/uzi-nr-pers"/>
          <value value="000001111"/>
        </identifier>
        <name>
          <use value="official"/>
          <text value="Peter van Pulver"/>
          <family value="van Pulver">
            <extension url="http://hl7.org/fhir/StructureDefinition/humanname-own-prefix">
              <valueString value="van"/>
            </extension>
            <extension url="http://hl7.org/fhir/StructureDefinition/humanname-own-name">
              <valueString value="Pulver"/>
            </extension>
          </family>
          <given value="Peter">
            <extension url="http://hl7.org/fhir/StructureDefinition/iso21090-EN-qualifier">
              <valueCode value="BR"/>
            </extension>
          </given>
        </name>
      </Practitioner>
    </resource>
    <request>
      <method value="POST"/>
      <url value="Practitioner"/>
    </request>
  </entry>
  <entry>
    <fullUrl value="urn:uuid:7fa869d8-6b44-11ec-0000-020000000000"/>
    <resource>
      <Organization>
        <meta>
          <profile value="http://nictiz.nl/fhir/StructureDefinition/nl-core-HealthcareProvider-Organization"/>
        </meta>
        <text>
          <status value="extensions"/>
          <div xmlns="http://www.w3.org/1999/xhtml">
            <table>
              <caption>Organisatie. Id: 00001111 (URA)</caption>
              <tbody>
                <tr>
                  <th>Naam</th>
                  <td>Huisartsenpraktijk Pulver &amp; Partners</td>
                </tr>
                <tr>
                  <th>Adres</th>
                  <td>Dorpsstraat 1, 1234AA Ons Dorp (Werk)</td>
                </tr>
              </tbody>
            </table>
          </div>
        </text>
        <identifier>
          <system value="http://fhir.nl/fhir/NamingSystem/ura"/>
          <value value="00001111"/>
        </identifier>
        <name value="Huisartsenpraktijk Pulver &amp; Partners"/>
        <address>
          <extension url="http://nictiz.nl/fhir/StructureDefinition/ext-AddressInformation.AddressType">
            <valueCodeableConcept>
              <coding>
                <system value="http://terminology.hl7.org/CodeSystem/v3-AddressUse"/>
                <code value="WP"/>
                <display value="Werkadres"/>
              </coding>
            </valueCodeableConcept>
          </extension>
          <use value="work"/>
          <line value="Dorpsstraat 1">
            <extension url="http://hl7.org/fhir/StructureDefinition/iso21090-ADXP-streetName">
              <valueString value="Dorpsstraat"/>
            </extension>
            <extension url="http://hl7.org/fhir/StructureDefinition/iso21090-ADXP-houseNumber">
              <valueString value="1"/>
            </extension>
          </line>
          <city value="Ons Dorp"/>
          <postalCode value="1234AA"/>
        </address>
      </Organization>
    </resource>
    <request>
      <method value="POST"/>
      <url value="Organization"/>
    </request>
  </entry>
  <entry>
    <fullUrl value="urn:uuid:8f94fd04-6b68-11ec-0000-020000000000"/>
    <resource>
      <Medication>
        <meta>
          <profile value="http://nictiz.nl/fhir/StructureDefinition/mp-PharmaceuticalProduct"/>
        </meta>
        <text>
          <status value="extensions"/>
          <div xmlns="http://www.w3.org/1999/xhtml">
            <table>
              <tbody>
                <tr>
                  <th>Code</th>
                  <td>
                    <span title="CAPECITABINE TABLET FO 500MG (59366 - G-Standaard PRK)">CAPECITABINE TABLET FO 500MG</span>
                  </td>
                </tr>
              </tbody>
            </table>
          </div>
        </text>
        <code>
          <coding>
            <system value="urn:oid:2.16.840.1.113883.2.4.4.10"/>
            <code value="59366"/>
            <display value="CAPECITABINE TABLET FO 500MG"/>
            <userSelected value="true"/>
          </coding>
          <coding>
            <system value="urn:oid:2.16.840.1.113883.2.4.4.1"/>
            <code value="112984"/>
            <display value="CAPECITABINE TABLET FO 500MG"/>
          </coding>
          <text value="CAPECITABINE TABLET FO 500MG"/>
        </code>
      </Medication>
    </resource>
    <request>
      <method value="POST"/>
      <url value="Medication"/>
    </request>
  </entry>
</Bundle>
