<Bundle xmlns="http://hl7.org/fhir">
  <id value="mg-mp-mg-kwal-MGB-script2-v30"/>
  <type value="transaction"/>
  <entry>
    <fullUrl value="urn:uuid:f8b85cbd-6b64-11ec-0000-020000000000"/>
    <resource>
      <MedicationStatement>
        <meta>
          <profile value="http://nictiz.nl/fhir/StructureDefinition/mp-MedicationUse2"/>
        </meta>
        <text>
          <status value="extensions"/>
          <div xmlns="http://www.w3.org/1999/xhtml">
            <table>
              <caption>MedicationStatement. Subject: Patient, M. XXX_Oorschot. Id: MBH_300_script2_MGB1 (urn:oid:2.16.840.1.113883.2.4.3.11.999.77.6.1), Categorie: <span title="bevinding betreffende gedrag met betrekking tot medicatieregime (422979000 - SNOMED CT)">bevinding betreffende gedrag met betrekking tot medicatieregime</span>, Status: actief</caption>
              <tbody>
                <tr>
                  <th>Medicatie</th>
                  <td>ACENOCOUMAROL CF TABLET 1MG</td>
                </tr>
                <tr>
                  <th>Datum/tijd</th>
                  <td>${DATE, T, D, -40}T00:00:00+02:00 - ${DATE, T, D, -37}T23:59:59+02:00</td>
                </tr>
                <tr>
                  <th>Informant</th>
                  <td>${DATE, T, D, -36}T14:25:00+02:00 - Contact person, Toos de Bakker</td>
                </tr>
                <tr>
                  <th>Ondersteunende informatie</th>
                  <td>relatie naar toedieningsafspraak (Id: MBH_300_script2_TA (urn:oid:2.16.840.1.113883.2.4.3.11.999.77.422037009.1))</td>
                </tr>
                <tr>
                  <th>Dosering</th>
                  <td>
                    <div>Timing: <div>4 dag18:00:00. Tijden zo precies mogelijk aanhouden</div>
                    </div>
                    <div>Toedieningsweg: <span title="oraal (9 - G-Standaard thesaurus subtabel 0007)">oraal</span>
                    </div>
                    <div>Dosering: doseAndRate TODO</div>
                  </td>
                </tr>
              </tbody>
            </table>
          </div>
        </text>
        <extension url="http://nictiz.nl/fhir/StructureDefinition/ext-RenderedDosageInstruction">
          <valueString value="Vanaf T - 40 dagen, tot en met T - 37 dagen, gedurende 4 dagen elke dag om 18:00 3 stuks - let op, tijden exact aanhouden, oraal"/>
        </extension>
        <extension url="http://nictiz.nl/fhir/StructureDefinition/ext-MedicationUse2.Prescriber">
          <valueReference>
            <reference value="urn:uuid:36322824-6aed-11ec-0000-020000000000"/>
            <type value="PractitionerRole"/>
            <display value="Healthcare professional (role), Peter van Pulver, Huisartsen, niet nader gespecificeerd, Huisartsenpraktijk Pulver &amp; Partners"/>
          </valueReference>
        </extension>
        <extension url="http://nictiz.nl/fhir/StructureDefinition/ext-AsAgreedIndicator">
          <valueBoolean value="false"/>
        </extension>
        <extension url="http://nictiz.nl/fhir/StructureDefinition/ext-PharmaceuticalTreatment.Identifier">
          <valueIdentifier>
            <system value="urn:oid:2.16.840.1.113883.2.4.3.11.999.77.1.1"/>
            <value value="MBH_300_script2"/>
          </valueIdentifier>
        </extension>
        <extension url="http://nictiz.nl/fhir/StructureDefinition/ext-MedicationUse2.Author">
          <valueReference>
            <reference value="urn:uuid:8d3d1824-6aeb-11ec-0000-020000000000"/>
            <type value="PractitionerRole"/>
            <display value="Healthcare professional (role), Tanja de Bakker, Trombosediensten, Trombosedienst Ons Dorp"/>
          </valueReference>
        </extension>
        <identifier>
          <system value="urn:oid:2.16.840.1.113883.2.4.3.11.999.77.6.1"/>
          <value value="MBH_300_script2_MGB1"/>
        </identifier>
        <status value="active"/>
        <category>
          <coding>
            <system value="http://snomed.info/sct"/>
            <code value="422979000"/>
            <display value="bevinding betreffende gedrag met betrekking tot medicatieregime"/>
          </coding>
        </category>
        <medicationReference>
          <reference value="urn:uuid:d6d3451d-6ae0-11ec-0000-020000000000"/>
          <type value="Medication"/>
          <display value="ACENOCOUMAROL CF TABLET 1MG"/>
        </medicationReference>
        <subject>
          <reference value="urn:uuid:ab7a4dfe-6b04-11ec-0000-020000000000"/>
          <type value="Patient"/>
          <display value="Patient, M. XXX_Oorschot"/>
        </subject>
        <effectivePeriod>
          <start value="${DATE, T, D, -40}T00:00:00+02:00"/>
          <end value="${DATE, T, D, -37}T23:59:59+02:00"/>
        </effectivePeriod>
        <dateAsserted value="${DATE, T, D, -36}T14:25:00+02:00"/>
        <informationSource>
          <reference value="urn:uuid:1488fa9e-6b23-11ec-0000-020000000000"/>
          <type value="RelatedPerson"/>
          <display value="Contact person, Toos de Bakker"/>
        </informationSource>
        <derivedFrom>
          <extension url="http://nictiz.nl/fhir/StructureDefinition/ext-ResourceCategory">
            <valueCodeableConcept>
              <coding>
                <system value="http://snomed.info/sct"/>
                <code value="422037009"/>
                <display value="toedieningsafspraak"/>
              </coding>
            </valueCodeableConcept>
          </extension>
          <type value="MedicationRequest"/>
          <identifier>
            <system value="urn:oid:2.16.840.1.113883.2.4.3.11.999.77.422037009.1"/>
            <value value="MBH_300_script2_TA"/>
          </identifier>
          <display value="relatie naar toedieningsafspraak"/>
        </derivedFrom>
        <dosage>
          <timing>
            <repeat>
              <extension url="http://hl7.org/fhir/StructureDefinition/timing-exact">
                <valueBoolean value="true"/>
              </extension>
              <boundsDuration>
                <value value="4"/>
                <unit value="dag"/>
                <system value="http://unitsofmeasure.org"/>
                <code value="d"/>
              </boundsDuration>
              <timeOfDay value="18:00:00"/>
            </repeat>
          </timing>
          <route>
            <coding>
              <system value="urn:oid:2.16.840.1.113883.2.4.4.9"/>
              <code value="9"/>
              <display value="oraal"/>
            </coding>
          </route>
          <doseAndRate>
            <doseQuantity>
              <extension url="http://hl7.org/fhir/StructureDefinition/iso21090-PQ-translation">
                <valueQuantity>
                  <value value="3"/>
                  <unit value="stuk"/>
                  <system value="urn:oid:2.16.840.1.113883.2.4.4.1.900.2"/>
                  <code value="245"/>
                </valueQuantity>
              </extension>
              <value value="3"/>
              <unit value="stuk"/>
              <system value="http://unitsofmeasure.org"/>
              <code value="1"/>
            </doseQuantity>
          </doseAndRate>
        </dosage>
      </MedicationStatement>
    </resource>
    <request>
      <method value="POST"/>
      <url value="MedicationStatement"/>
    </request>
  </entry>
  <entry>
    <fullUrl value="urn:uuid:06a7ecbd-6b5f-11ec-0000-020000000000"/>
    <resource>
      <MedicationStatement>
        <meta>
          <profile value="http://nictiz.nl/fhir/StructureDefinition/mp-MedicationUse2"/>
        </meta>
        <text>
          <status value="extensions"/>
          <div xmlns="http://www.w3.org/1999/xhtml">
            <table>
              <caption>MedicationStatement. Subject: Patient, M. XXX_Oorschot. Id: MBH_300_script2_MGB2 (urn:oid:2.16.840.1.113883.2.4.3.11.999.77.6.1), Categorie: <span title="bevinding betreffende gedrag met betrekking tot medicatieregime (422979000 - SNOMED CT)">bevinding betreffende gedrag met betrekking tot medicatieregime</span>, Status: actief</caption>
              <tbody>
                <tr>
                  <th>Medicatie</th>
                  <td>ACENOCOUMAROL CF TABLET 1MG</td>
                </tr>
                <tr>
                  <th>Datum/tijd</th>
                  <td>${DATE, T, D, -36}T00:00:00+02:00 - ${DATE, T, D, -24}T23:59:59+02:00</td>
                </tr>
                <tr>
                  <th>Informant</th>
                  <td>${DATE, T, D, -20}T10:25:00+02:00 - Contact person, Toos de Bakker</td>
                </tr>
                <tr>
                  <th>Ondersteunende informatie</th>
                  <td>relatie naar toedieningsafspraak (Id: MBH_300_script2_TA (urn:oid:2.16.840.1.113883.2.4.3.11.999.77.422037009.1))</td>
                </tr>
                <tr>
                  <th>Dosering</th>
                  <td>
                    <div>Volgnummer: 1</div>
                    <div>Timing: <div>3 dag, EVE</div>
                    </div>
                    <div>Toedieningsweg: <span title="oraal (9 - G-Standaard thesaurus subtabel 0007)">oraal</span>
                    </div>
                    <div>Dosering: doseAndRate TODO</div>
                  </td>
                </tr>
                <tr>
                  <th>Dosering</th>
                  <td>
                    <div>Volgnummer: 2</div>
                    <div>Timing: <div>2 dag, EVE</div>
                    </div>
                    <div>Toedieningsweg: <span title="oraal (9 - G-Standaard thesaurus subtabel 0007)">oraal</span>
                    </div>
                    <div>Dosering: doseAndRate TODO</div>
                  </td>
                </tr>
                <tr>
                  <th>Dosering</th>
                  <td>
                    <div>Volgnummer: 3</div>
                    <div>Timing: <div>2 dag, EVE</div>
                    </div>
                    <div>Toedieningsweg: <span title="oraal (9 - G-Standaard thesaurus subtabel 0007)">oraal</span>
                    </div>
                    <div>Dosering: doseAndRate TODO</div>
                  </td>
                </tr>
                <tr>
                  <th>Dosering</th>
                  <td>
                    <div>Volgnummer: 4</div>
                    <div>Timing: <div>2 dag, EVE</div>
                    </div>
                    <div>Toedieningsweg: <span title="oraal (9 - G-Standaard thesaurus subtabel 0007)">oraal</span>
                    </div>
                    <div>Dosering: doseAndRate TODO</div>
                  </td>
                </tr>
                <tr>
                  <th>Dosering</th>
                  <td>
                    <div>Volgnummer: 5</div>
                    <div>Timing: <div>3 dag, EVE</div>
                    </div>
                    <div>Toedieningsweg: <span title="oraal (9 - G-Standaard thesaurus subtabel 0007)">oraal</span>
                    </div>
                    <div>Dosering: doseAndRate TODO</div>
                  </td>
                </tr>
                <tr>
                  <th>Dosering</th>
                  <td>
                    <div>Volgnummer: 6</div>
                    <div>Timing: <div>2 dag, EVE</div>
                    </div>
                    <div>Toedieningsweg: <span title="oraal (9 - G-Standaard thesaurus subtabel 0007)">oraal</span>
                    </div>
                    <div>Dosering: doseAndRate TODO</div>
                  </td>
                </tr>
              </tbody>
            </table>
          </div>
        </text>
        <extension url="http://nictiz.nl/fhir/StructureDefinition/ext-RenderedDosageInstruction">
          <valueString value="Vanaf T - 36 dagen, tot en met T - 24 dagen, eerst gedurende 3 dagen 2 stuks 's avonds, dan gedurende 2 dagen 3 stuks 's avonds, dan gedurende 2 dagen 2 stuks 's avonds, dan gedurende 2 dagen 3 stuks 's avonds, dan gedurende 3 dagen 2 stuks 's avonds, dan gedurende 2 dagen 3 stuks 's avonds, oraal"/>
        </extension>
        <extension url="http://nictiz.nl/fhir/StructureDefinition/ext-MedicationUse2.Prescriber">
          <valueReference>
            <reference value="urn:uuid:36322824-6aed-11ec-0000-020000000000"/>
            <type value="PractitionerRole"/>
            <display value="Healthcare professional (role), Peter van Pulver, Huisartsen, niet nader gespecificeerd, Huisartsenpraktijk Pulver &amp; Partners"/>
          </valueReference>
        </extension>
        <extension url="http://nictiz.nl/fhir/StructureDefinition/ext-AsAgreedIndicator">
          <valueBoolean value="true"/>
        </extension>
        <extension url="http://nictiz.nl/fhir/StructureDefinition/ext-PharmaceuticalTreatment.Identifier">
          <valueIdentifier>
            <system value="urn:oid:2.16.840.1.113883.2.4.3.11.999.77.1.1"/>
            <value value="MBH_300_script2"/>
          </valueIdentifier>
        </extension>
        <extension url="http://nictiz.nl/fhir/StructureDefinition/ext-MedicationUse2.Author">
          <valueReference>
            <reference value="urn:uuid:8d3d1824-6aeb-11ec-0000-020000000000"/>
            <type value="PractitionerRole"/>
            <display value="Healthcare professional (role), Tanja de Bakker, Trombosediensten, Trombosedienst Ons Dorp"/>
          </valueReference>
        </extension>
        <identifier>
          <system value="urn:oid:2.16.840.1.113883.2.4.3.11.999.77.6.1"/>
          <value value="MBH_300_script2_MGB2"/>
        </identifier>
        <status value="active"/>
        <category>
          <coding>
            <system value="http://snomed.info/sct"/>
            <code value="422979000"/>
            <display value="bevinding betreffende gedrag met betrekking tot medicatieregime"/>
          </coding>
        </category>
        <medicationReference>
          <reference value="urn:uuid:d6d3451d-6ae0-11ec-0000-020000000000"/>
          <type value="Medication"/>
          <display value="ACENOCOUMAROL CF TABLET 1MG"/>
        </medicationReference>
        <subject>
          <reference value="urn:uuid:ab7a4dfe-6b04-11ec-0000-020000000000"/>
          <type value="Patient"/>
          <display value="Patient, M. XXX_Oorschot"/>
        </subject>
        <effectivePeriod>
          <start value="${DATE, T, D, -36}T00:00:00+02:00"/>
          <end value="${DATE, T, D, -24}T23:59:59+02:00"/>
        </effectivePeriod>
        <dateAsserted value="${DATE, T, D, -20}T10:25:00+02:00"/>
        <informationSource>
          <reference value="urn:uuid:1488fa9e-6b23-11ec-0000-020000000000"/>
          <type value="RelatedPerson"/>
          <display value="Contact person, Toos de Bakker"/>
        </informationSource>
        <derivedFrom>
          <extension url="http://nictiz.nl/fhir/StructureDefinition/ext-ResourceCategory">
            <valueCodeableConcept>
              <coding>
                <system value="http://snomed.info/sct"/>
                <code value="422037009"/>
                <display value="toedieningsafspraak"/>
              </coding>
            </valueCodeableConcept>
          </extension>
          <type value="MedicationRequest"/>
          <identifier>
            <system value="urn:oid:2.16.840.1.113883.2.4.3.11.999.77.422037009.1"/>
            <value value="MBH_300_script2_TA"/>
          </identifier>
          <display value="relatie naar toedieningsafspraak"/>
        </derivedFrom>
        <dosage>
          <sequence value="1"/>
          <timing>
            <repeat>
              <extension url="http://hl7.org/fhir/StructureDefinition/timing-exact">
                <valueBoolean value="false"/>
              </extension>
              <boundsDuration>
                <value value="3"/>
                <unit value="dag"/>
                <system value="http://unitsofmeasure.org"/>
                <code value="d"/>
              </boundsDuration>
              <when value="EVE"/>
            </repeat>
          </timing>
          <route>
            <coding>
              <system value="urn:oid:2.16.840.1.113883.2.4.4.9"/>
              <code value="9"/>
              <display value="oraal"/>
            </coding>
          </route>
          <doseAndRate>
            <doseQuantity>
              <extension url="http://hl7.org/fhir/StructureDefinition/iso21090-PQ-translation">
                <valueQuantity>
                  <value value="2"/>
                  <unit value="stuk"/>
                  <system value="urn:oid:2.16.840.1.113883.2.4.4.1.900.2"/>
                  <code value="245"/>
                </valueQuantity>
              </extension>
              <value value="2"/>
              <unit value="stuk"/>
              <system value="http://unitsofmeasure.org"/>
              <code value="1"/>
            </doseQuantity>
          </doseAndRate>
        </dosage>
        <dosage>
          <sequence value="2"/>
          <timing>
            <repeat>
              <extension url="http://hl7.org/fhir/StructureDefinition/timing-exact">
                <valueBoolean value="false"/>
              </extension>
              <boundsDuration>
                <value value="2"/>
                <unit value="dag"/>
                <system value="http://unitsofmeasure.org"/>
                <code value="d"/>
              </boundsDuration>
              <when value="EVE"/>
            </repeat>
          </timing>
          <route>
            <coding>
              <system value="urn:oid:2.16.840.1.113883.2.4.4.9"/>
              <code value="9"/>
              <display value="oraal"/>
            </coding>
          </route>
          <doseAndRate>
            <doseQuantity>
              <extension url="http://hl7.org/fhir/StructureDefinition/iso21090-PQ-translation">
                <valueQuantity>
                  <value value="3"/>
                  <unit value="stuk"/>
                  <system value="urn:oid:2.16.840.1.113883.2.4.4.1.900.2"/>
                  <code value="245"/>
                </valueQuantity>
              </extension>
              <value value="3"/>
              <unit value="stuk"/>
              <system value="http://unitsofmeasure.org"/>
              <code value="1"/>
            </doseQuantity>
          </doseAndRate>
        </dosage>
        <dosage>
          <sequence value="3"/>
          <timing>
            <repeat>
              <extension url="http://hl7.org/fhir/StructureDefinition/timing-exact">
                <valueBoolean value="false"/>
              </extension>
              <boundsDuration>
                <value value="2"/>
                <unit value="dag"/>
                <system value="http://unitsofmeasure.org"/>
                <code value="d"/>
              </boundsDuration>
              <when value="EVE"/>
            </repeat>
          </timing>
          <route>
            <coding>
              <system value="urn:oid:2.16.840.1.113883.2.4.4.9"/>
              <code value="9"/>
              <display value="oraal"/>
            </coding>
          </route>
          <doseAndRate>
            <doseQuantity>
              <extension url="http://hl7.org/fhir/StructureDefinition/iso21090-PQ-translation">
                <valueQuantity>
                  <value value="2"/>
                  <unit value="stuk"/>
                  <system value="urn:oid:2.16.840.1.113883.2.4.4.1.900.2"/>
                  <code value="245"/>
                </valueQuantity>
              </extension>
              <value value="2"/>
              <unit value="stuk"/>
              <system value="http://unitsofmeasure.org"/>
              <code value="1"/>
            </doseQuantity>
          </doseAndRate>
        </dosage>
        <dosage>
          <sequence value="4"/>
          <timing>
            <repeat>
              <extension url="http://hl7.org/fhir/StructureDefinition/timing-exact">
                <valueBoolean value="false"/>
              </extension>
              <boundsDuration>
                <value value="2"/>
                <unit value="dag"/>
                <system value="http://unitsofmeasure.org"/>
                <code value="d"/>
              </boundsDuration>
              <when value="EVE"/>
            </repeat>
          </timing>
          <route>
            <coding>
              <system value="urn:oid:2.16.840.1.113883.2.4.4.9"/>
              <code value="9"/>
              <display value="oraal"/>
            </coding>
          </route>
          <doseAndRate>
            <doseQuantity>
              <extension url="http://hl7.org/fhir/StructureDefinition/iso21090-PQ-translation">
                <valueQuantity>
                  <value value="3"/>
                  <unit value="stuk"/>
                  <system value="urn:oid:2.16.840.1.113883.2.4.4.1.900.2"/>
                  <code value="245"/>
                </valueQuantity>
              </extension>
              <value value="3"/>
              <unit value="stuk"/>
              <system value="http://unitsofmeasure.org"/>
              <code value="1"/>
            </doseQuantity>
          </doseAndRate>
        </dosage>
        <dosage>
          <sequence value="5"/>
          <timing>
            <repeat>
              <extension url="http://hl7.org/fhir/StructureDefinition/timing-exact">
                <valueBoolean value="false"/>
              </extension>
              <boundsDuration>
                <value value="3"/>
                <unit value="dag"/>
                <system value="http://unitsofmeasure.org"/>
                <code value="d"/>
              </boundsDuration>
              <when value="EVE"/>
            </repeat>
          </timing>
          <route>
            <coding>
              <system value="urn:oid:2.16.840.1.113883.2.4.4.9"/>
              <code value="9"/>
              <display value="oraal"/>
            </coding>
          </route>
          <doseAndRate>
            <doseQuantity>
              <extension url="http://hl7.org/fhir/StructureDefinition/iso21090-PQ-translation">
                <valueQuantity>
                  <value value="2"/>
                  <unit value="stuk"/>
                  <system value="urn:oid:2.16.840.1.113883.2.4.4.1.900.2"/>
                  <code value="245"/>
                </valueQuantity>
              </extension>
              <value value="2"/>
              <unit value="stuk"/>
              <system value="http://unitsofmeasure.org"/>
              <code value="1"/>
            </doseQuantity>
          </doseAndRate>
        </dosage>
        <dosage>
          <sequence value="6"/>
          <timing>
            <repeat>
              <extension url="http://hl7.org/fhir/StructureDefinition/timing-exact">
                <valueBoolean value="false"/>
              </extension>
              <boundsDuration>
                <value value="2"/>
                <unit value="dag"/>
                <system value="http://unitsofmeasure.org"/>
                <code value="d"/>
              </boundsDuration>
              <when value="EVE"/>
            </repeat>
          </timing>
          <route>
            <coding>
              <system value="urn:oid:2.16.840.1.113883.2.4.4.9"/>
              <code value="9"/>
              <display value="oraal"/>
            </coding>
          </route>
          <doseAndRate>
            <doseQuantity>
              <extension url="http://hl7.org/fhir/StructureDefinition/iso21090-PQ-translation">
                <valueQuantity>
                  <value value="3"/>
                  <unit value="stuk"/>
                  <system value="urn:oid:2.16.840.1.113883.2.4.4.1.900.2"/>
                  <code value="245"/>
                </valueQuantity>
              </extension>
              <value value="3"/>
              <unit value="stuk"/>
              <system value="http://unitsofmeasure.org"/>
              <code value="1"/>
            </doseQuantity>
          </doseAndRate>
        </dosage>
      </MedicationStatement>
    </resource>
    <request>
      <method value="POST"/>
      <url value="MedicationStatement"/>
    </request>
  </entry>
  <entry>
    <fullUrl value="urn:uuid:ab7a4dfe-6b04-11ec-0000-020000000000"/>
    <resource>
      <Patient>
        <meta>
          <profile value="http://nictiz.nl/fhir/StructureDefinition/nl-core-Patient"/>
        </meta>
        <text>
          <status value="extensions"/>
          <div xmlns="http://www.w3.org/1999/xhtml">
            <div>Id 999900869 (BSN), <span title="Naamsamenstelling: Eigennaam">M. XXX_Oorschot</span>, Man, 31 januari 1985</div>
          </div>
        </text>
        <identifier>
          <system value="http://fhir.nl/fhir/NamingSystem/bsn"/>
          <value value="999900869"/>
        </identifier>
        <name>
          <extension url="http://hl7.org/fhir/StructureDefinition/humanname-assembly-order">
            <valueCode value="NL1"/>
          </extension>
          <use value="official"/>
          <text value="M. XXX_Oorschot"/>
          <family value="XXX_Oorschot">
            <extension url="http://hl7.org/fhir/StructureDefinition/humanname-own-name">
              <valueString value="XXX_Oorschot"/>
            </extension>
          </family>
          <given value="M.">
            <extension url="http://hl7.org/fhir/StructureDefinition/iso21090-EN-qualifier">
              <valueCode value="IN"/>
            </extension>
          </given>
        </name>
        <gender value="male">
          <extension url="http://nictiz.nl/fhir/StructureDefinition/ext-CodeSpecification">
            <valueCodeableConcept>
              <coding>
                <system value="http://terminology.hl7.org/CodeSystem/v3-AdministrativeGender"/>
                <code value="M"/>
                <display value="Man"/>
              </coding>
            </valueCodeableConcept>
          </extension>
        </gender>
        <birthDate value="1985-01-31"/>
      </Patient>
    </resource>
    <request>
      <method value="POST"/>
      <url value="Patient"/>
    </request>
  </entry>
  <entry>
    <fullUrl value="urn:uuid:1488fa9e-6b23-11ec-0000-020000000000"/>
    <resource>
      <RelatedPerson>
        <meta>
          <profile value="http://nictiz.nl/fhir/StructureDefinition/nl-core-ContactPerson"/>
        </meta>
        <text>
          <status value="extensions"/>
          <div xmlns="http://www.w3.org/1999/xhtml">
            <div>Toos de Bakker</div>
            <div>
              <span title="Mantelzorger (100001 - 2.16.840.1.113883.2.4.3.11.60.40.4.23.1)">Mantelzorger</span> van Patient, M. XXX_Oorschot</div>
          </div>
        </text>
        <patient>
          <reference value="urn:uuid:ab7a4dfe-6b04-11ec-0000-020000000000"/>
          <type value="Patient"/>
          <display value="Patient, M. XXX_Oorschot"/>
        </patient>
        <relationship>
          <coding>
            <system value="urn:oid:2.16.840.1.113883.2.4.3.11.60.40.4.23.1"/>
            <code value="100001"/>
            <display value="Mantelzorger"/>
          </coding>
        </relationship>
        <name>
          <use value="official"/>
          <text value="Toos de Bakker"/>
          <family value="de Bakker">
            <extension url="http://hl7.org/fhir/StructureDefinition/humanname-own-prefix">
              <valueString value="de"/>
            </extension>
            <extension url="http://hl7.org/fhir/StructureDefinition/humanname-own-name">
              <valueString value="Bakker"/>
            </extension>
          </family>
          <given value="Toos">
            <extension url="http://hl7.org/fhir/StructureDefinition/iso21090-EN-qualifier">
              <valueCode value="BR"/>
            </extension>
          </given>
        </name>
      </RelatedPerson>
    </resource>
    <request>
      <method value="POST"/>
      <url value="RelatedPerson"/>
    </request>
  </entry>
  <entry>
    <fullUrl value="urn:uuid:36322824-6aed-11ec-0000-020000000000"/>
    <resource>
      <PractitionerRole>
        <meta>
          <profile value="http://nictiz.nl/fhir/StructureDefinition/nl-core-HealthProfessional-PractitionerRole"/>
        </meta>
        <text>
          <status value="extensions"/>
          <div xmlns="http://www.w3.org/1999/xhtml">
            <table>
              <caption>Zorgverlenerrol. </caption>
              <tbody>
                <tr>
                  <th>Zorgverlener</th>
                  <td>
                    <div>Healthcare professional (person), Peter van Pulver</div>
                    <div>Healthcare provider (organization), Huisartsenpraktijk Pulver &amp; Partners</div>
                  </td>
                </tr>
                <tr>
                  <th>Specialisme</th>
                  <td>
                    <span title="Huisartsen, niet nader gespecificeerd (0100 - AGB-medisch specialisme)">Huisartsen, niet nader gespecificeerd</span>
                  </td>
                </tr>
              </tbody>
            </table>
          </div>
        </text>
        <practitioner>
          <reference value="urn:uuid:4a573558-6ad5-11ec-0000-020000000000"/>
          <type value="Practitioner"/>
          <display value="Healthcare professional (person), Peter van Pulver"/>
        </practitioner>
        <organization>
          <reference value="urn:uuid:7fa869d8-6b44-11ec-0000-020000000000"/>
          <type value="Organization"/>
          <display value="Healthcare provider (organization), Huisartsenpraktijk Pulver &amp; Partners"/>
        </organization>
        <specialty>
          <coding>
            <system value="urn:oid:2.16.840.1.113883.2.4.6.7"/>
            <version value="2020-10-23T00:00:00"/>
            <code value="0100"/>
            <display value="Huisartsen, niet nader gespecificeerd"/>
          </coding>
        </specialty>
      </PractitionerRole>
    </resource>
    <request>
      <method value="POST"/>
      <url value="PractitionerRole"/>
    </request>
  </entry>
  <entry>
    <fullUrl value="urn:uuid:4a573558-6ad5-11ec-0000-020000000000"/>
    <resource>
      <Practitioner>
        <meta>
          <profile value="http://nictiz.nl/fhir/StructureDefinition/nl-core-HealthProfessional-Practitioner"/>
        </meta>
        <text>
          <status value="extensions"/>
          <div xmlns="http://www.w3.org/1999/xhtml">
            <div>Id 000001111 (UZI-NR-PERS), Peter van Pulver</div>
          </div>
        </text>
        <identifier>
          <system value="http://fhir.nl/fhir/NamingSystem/uzi-nr-pers"/>
          <value value="000001111"/>
        </identifier>
        <name>
          <use value="official"/>
          <text value="Peter van Pulver"/>
          <family value="van Pulver">
            <extension url="http://hl7.org/fhir/StructureDefinition/humanname-own-prefix">
              <valueString value="van"/>
            </extension>
            <extension url="http://hl7.org/fhir/StructureDefinition/humanname-own-name">
              <valueString value="Pulver"/>
            </extension>
          </family>
          <given value="Peter">
            <extension url="http://hl7.org/fhir/StructureDefinition/iso21090-EN-qualifier">
              <valueCode value="BR"/>
            </extension>
          </given>
        </name>
      </Practitioner>
    </resource>
    <request>
      <method value="POST"/>
      <url value="Practitioner"/>
    </request>
  </entry>
  <entry>
    <fullUrl value="urn:uuid:8d3d1824-6aeb-11ec-0000-020000000000"/>
    <resource>
      <PractitionerRole>
        <meta>
          <profile value="http://nictiz.nl/fhir/StructureDefinition/nl-core-HealthProfessional-PractitionerRole"/>
        </meta>
        <text>
          <status value="extensions"/>
          <div xmlns="http://www.w3.org/1999/xhtml">
            <table>
              <caption>Zorgverlenerrol. </caption>
              <tbody>
                <tr>
                  <th>Zorgverlener</th>
                  <td>
                    <div>Healthcare professional (person), Tanja de Bakker</div>
                    <div>Healthcare provider (organization), Trombosedienst Ons Dorp</div>
                  </td>
                </tr>
                <tr>
                  <th>Specialisme</th>
                  <td>
                    <span title="Trombosediensten (3400 - AGB-medisch specialisme)">Trombosediensten</span>
                  </td>
                </tr>
              </tbody>
            </table>
          </div>
        </text>
        <practitioner>
          <reference value="urn:uuid:7cac7558-6b5d-11ec-0000-020000000000"/>
          <type value="Practitioner"/>
          <display value="Healthcare professional (person), Tanja de Bakker"/>
        </practitioner>
        <organization>
          <reference value="urn:uuid:5bc4856e-6b7b-11ec-0000-020000000000"/>
          <type value="Organization"/>
          <display value="Healthcare provider (organization), Trombosedienst Ons Dorp"/>
        </organization>
        <specialty>
          <coding>
            <system value="urn:oid:2.16.840.1.113883.2.4.6.7"/>
            <version value="2020-10-23T00:00:00"/>
            <code value="3400"/>
            <display value="Trombosediensten"/>
          </coding>
        </specialty>
      </PractitionerRole>
    </resource>
    <request>
      <method value="POST"/>
      <url value="PractitionerRole"/>
    </request>
  </entry>
  <entry>
    <fullUrl value="urn:uuid:7cac7558-6b5d-11ec-0000-020000000000"/>
    <resource>
      <Practitioner>
        <meta>
          <profile value="http://nictiz.nl/fhir/StructureDefinition/nl-core-HealthProfessional-Practitioner"/>
        </meta>
        <text>
          <status value="extensions"/>
          <div xmlns="http://www.w3.org/1999/xhtml">
            <div>Id 222221111 (UZI-NR-PERS), Tanja de Bakker</div>
          </div>
        </text>
        <identifier>
          <system value="http://fhir.nl/fhir/NamingSystem/uzi-nr-pers"/>
          <value value="222221111"/>
        </identifier>
        <name>
          <use value="official"/>
          <text value="Tanja de Bakker"/>
          <family value="de Bakker">
            <extension url="http://hl7.org/fhir/StructureDefinition/humanname-own-prefix">
              <valueString value="de"/>
            </extension>
            <extension url="http://hl7.org/fhir/StructureDefinition/humanname-own-name">
              <valueString value="Bakker"/>
            </extension>
          </family>
          <given value="Tanja">
            <extension url="http://hl7.org/fhir/StructureDefinition/iso21090-EN-qualifier">
              <valueCode value="BR"/>
            </extension>
          </given>
        </name>
      </Practitioner>
    </resource>
    <request>
      <method value="POST"/>
      <url value="Practitioner"/>
    </request>
  </entry>
  <entry>
    <fullUrl value="urn:uuid:7fa869d8-6b44-11ec-0000-020000000000"/>
    <resource>
      <Organization>
        <meta>
          <profile value="http://nictiz.nl/fhir/StructureDefinition/nl-core-HealthcareProvider-Organization"/>
        </meta>
        <text>
          <status value="extensions"/>
          <div xmlns="http://www.w3.org/1999/xhtml">
            <table>
              <caption>Organisatie. Id: 00001111 (URA)</caption>
              <tbody>
                <tr>
                  <th>Naam</th>
                  <td>Huisartsenpraktijk Pulver &amp; Partners</td>
                </tr>
                <tr>
                  <th>Adres</th>
                  <td>Dorpsstraat 1, 1234AA Ons Dorp (Werk)</td>
                </tr>
              </tbody>
            </table>
          </div>
        </text>
        <identifier>
          <system value="http://fhir.nl/fhir/NamingSystem/ura"/>
          <value value="00001111"/>
        </identifier>
        <name value="Huisartsenpraktijk Pulver &amp; Partners"/>
        <address>
          <extension url="http://nictiz.nl/fhir/StructureDefinition/ext-AddressInformation.AddressType">
            <valueCodeableConcept>
              <coding>
                <system value="http://terminology.hl7.org/CodeSystem/v3-AddressUse"/>
                <code value="WP"/>
                <display value="Werkadres"/>
              </coding>
            </valueCodeableConcept>
          </extension>
          <use value="work"/>
          <line value="Dorpsstraat 1">
            <extension url="http://hl7.org/fhir/StructureDefinition/iso21090-ADXP-streetName">
              <valueString value="Dorpsstraat"/>
            </extension>
            <extension url="http://hl7.org/fhir/StructureDefinition/iso21090-ADXP-houseNumber">
              <valueString value="1"/>
            </extension>
          </line>
          <city value="Ons Dorp"/>
          <postalCode value="1234AA"/>
        </address>
      </Organization>
    </resource>
    <request>
      <method value="POST"/>
      <url value="Organization"/>
    </request>
  </entry>
  <entry>
    <fullUrl value="urn:uuid:5bc4856e-6b7b-11ec-0000-020000000000"/>
    <resource>
      <Organization>
        <meta>
          <profile value="http://nictiz.nl/fhir/StructureDefinition/nl-core-HealthcareProvider-Organization"/>
        </meta>
        <text>
          <status value="extensions"/>
          <div xmlns="http://www.w3.org/1999/xhtml">
            <table>
              <caption>Organisatie. Id: 11112222 (URA)</caption>
              <tbody>
                <tr>
                  <th>Naam</th>
                  <td>Trombosedienst Ons Dorp</td>
                </tr>
                <tr>
                  <th>Type</th>
                  <td>
                    <span title="Trombosediensten (3400 - AGB-medisch specialisme)">Trombosediensten</span>
                  </td>
                </tr>
                <tr>
                  <th>Adres</th>
                  <td>Kerkstraat 28 d, 1332GH Ons Dorp</td>
                </tr>
              </tbody>
            </table>
          </div>
        </text>
        <identifier>
          <system value="http://fhir.nl/fhir/NamingSystem/ura"/>
          <value value="11112222"/>
        </identifier>
        <type>
          <coding>
            <system value="urn:oid:2.16.840.1.113883.2.4.6.7"/>
            <version value="2020-10-23T00:00:00"/>
            <code value="3400"/>
            <display value="Trombosediensten"/>
          </coding>
        </type>
        <name value="Trombosedienst Ons Dorp"/>
        <address>
          <line value="Kerkstraat 28 d">
            <extension url="http://hl7.org/fhir/StructureDefinition/iso21090-ADXP-streetName">
              <valueString value="Kerkstraat"/>
            </extension>
            <extension url="http://hl7.org/fhir/StructureDefinition/iso21090-ADXP-houseNumber">
              <valueString value="28"/>
            </extension>
            <extension url="http://hl7.org/fhir/StructureDefinition/iso21090-ADXP-buildingNumberSuffix">
              <valueString value="d"/>
            </extension>
          </line>
          <city value="Ons Dorp"/>
          <postalCode value="1332GH"/>
        </address>
      </Organization>
    </resource>
    <request>
      <method value="POST"/>
      <url value="Organization"/>
    </request>
  </entry>
  <entry>
    <fullUrl value="urn:uuid:d6d3451d-6ae0-11ec-0000-020000000000"/>
    <resource>
      <Medication>
        <meta>
          <profile value="http://nictiz.nl/fhir/StructureDefinition/mp-PharmaceuticalProduct"/>
        </meta>
        <text>
          <status value="extensions"/>
          <div xmlns="http://www.w3.org/1999/xhtml">
            <table>
              <tbody>
                <tr>
                  <th>Code</th>
                  <td>
                    <span title="ACENOCOUMAROL CF TABLET 1MG (856126 - G-Standaard HPK)">ACENOCOUMAROL CF TABLET 1MG</span>
                  </td>
                </tr>
              </tbody>
            </table>
          </div>
        </text>
        <code>
          <coding>
            <system value="urn:oid:2.16.840.1.113883.2.4.4.7"/>
            <code value="856126"/>
            <display value="ACENOCOUMAROL CF TABLET 1MG"/>
            <userSelected value="true"/>
          </coding>
          <coding>
            <system value="urn:oid:2.16.840.1.113883.2.4.4.10"/>
            <code value="7323"/>
            <display value="ACENOCOUMAROL TABLET 1MG"/>
          </coding>
          <coding>
            <system value="urn:oid:2.16.840.1.113883.2.4.4.1"/>
            <code value="20303"/>
            <display value="ACENOCOUMAROL TABLET 1MG"/>
          </coding>
          <text value="ACENOCOUMAROL CF TABLET 1MG"/>
        </code>
      </Medication>
    </resource>
    <request>
      <method value="POST"/>
      <url value="Medication"/>
    </request>
  </entry>
</Bundle>
