<Bundle xmlns="http://hl7.org/fhir">
  <id value="mgsets-mp-smg-kwal-MTD-script1-v30"/>
  <type value="transaction"/>
  <entry>
    <fullUrl value="urn:uuid:2956145d-6b08-11ec-0000-020000000000"/>
    <resource>
      <MedicationAdministration>
        <meta>
          <profile value="http://nictiz.nl/fhir/StructureDefinition/mp-MedicationAdministration2"/>
        </meta>
        <text>
          <status value="extensions"/>
          <div xmlns="http://www.w3.org/1999/xhtml">
            <table>
              <caption>Medicatietoediening. Subject: Patient, P. XXX_Schut. Id: MBH_300_SCRIPT1_MTD1 (urn:oid:2.16.840.1.113883.2.4.3.11.999.77.18629005.1), Categorie: <span title="toediening van medicatie (18629005 - SNOMED CT)">toediening van medicatie</span>, Status: onbekend</caption>
              <tbody>
                <tr>
                  <th>Medicatie</th>
                  <td>ECANSYA TABLET FILMOMHULD 500MG</td>
                </tr>
                <tr>
                  <th>Datum/tijd</th>
                  <td>${DATE, T, D, +0}T09:00:00+02:00</td>
                </tr>
                <tr>
                  <th>Ondersteunende informatie</th>
                  <td>relatie naar toedieningsafspraak met identificatie: MBH_300_SCRIPT1_TA || 2.16.840.1.113883.2.4.3.11.999.77.422037009.1 (Id: MBH_300_SCRIPT1_TA (urn:oid:2.16.840.1.113883.2.4.3.11.999.77.422037009.1))</td>
                </tr>
                <tr>
                  <th>Dosering</th>
                  <td>
                    <div>Toedieningsweg: <span title="oraal (9 - G-Standaard thesaurus subtabel 0007)">oraal</span>
                    </div>
                    <div>Dosering: 4 stuk</div>
                  </td>
                </tr>
              </tbody>
            </table>
          </div>
        </text>
        <extension url="http://nictiz.nl/fhir/StructureDefinition/ext-RegistrationDateTime">
          <valueDateTime value="${DATE, T, D, +0}T09:00:00+02:00"/>
        </extension>
        <extension url="http://nictiz.nl/fhir/StructureDefinition/ext-PharmaceuticalTreatment.Identifier">
          <valueIdentifier>
            <system value="urn:oid:2.16.840.1.113883.2.4.3.11.999.77.1.1"/>
            <value value="MBH_300_SCRIPT1"/>
          </valueIdentifier>
        </extension>
        <identifier>
          <system value="urn:oid:2.16.840.1.113883.2.4.3.11.999.77.18629005.1"/>
          <value value="MBH_300_SCRIPT1_MTD1"/>
        </identifier>
        <status value="unknown"/>
        <category>
          <coding>
            <system value="http://snomed.info/sct"/>
            <code value="18629005"/>
            <display value="toediening van medicatie"/>
          </coding>
        </category>
        <medicationReference>
          <reference value="urn:uuid:1a726d1d-6b67-11ec-0000-020000000000"/>
          <type value="Medication"/>
          <display value="ECANSYA TABLET FILMOMHULD 500MG"/>
        </medicationReference>
        <subject>
          <reference value="urn:uuid:3ae2f678-6b63-11ec-0000-020000000000"/>
          <type value="Patient"/>
          <display value="Patient, P. XXX_Schut"/>
        </subject>
        <supportingInformation>
          <type value="MedicationDispense"/>
          <identifier>
            <system value="urn:oid:2.16.840.1.113883.2.4.3.11.999.77.422037009.1"/>
            <value value="MBH_300_SCRIPT1_TA"/>
          </identifier>
          <display value="relatie naar toedieningsafspraak met identificatie: MBH_300_SCRIPT1_TA || 2.16.840.1.113883.2.4.3.11.999.77.422037009.1"/>
        </supportingInformation>
        <effectiveDateTime value="${DATE, T, D, +0}T09:00:00+02:00"/>
        <performer>
          <actor>
            <reference value="urn:uuid:a757282e-6b76-11ec-0000-020000000000"/>
            <type value="PractitionerRole"/>
            <display value="Healthcare professional (role), Jantien Toedien, Verpleegkundigen, niet nader gespecificeerd, Thuiszorg Om en Bij"/>
          </actor>
        </performer>
        <dosage>
          <route>
            <coding>
              <system value="urn:oid:2.16.840.1.113883.2.4.4.9"/>
              <code value="9"/>
              <display value="oraal"/>
            </coding>
          </route>
          <dose>
            <extension url="http://hl7.org/fhir/StructureDefinition/iso21090-PQ-translation">
              <valueQuantity>
                <value value="4"/>
                <unit value="stuk"/>
                <system value="urn:oid:2.16.840.1.113883.2.4.4.1.900.2"/>
                <code value="245"/>
              </valueQuantity>
            </extension>
            <value value="4"/>
            <unit value="stuk"/>
            <system value="http://unitsofmeasure.org"/>
            <code value="1"/>
          </dose>
        </dosage>
      </MedicationAdministration>
    </resource>
    <request>
      <method value="POST"/>
      <url value="MedicationAdministration"/>
    </request>
  </entry>
  <entry>
    <fullUrl value="urn:uuid:6018345d-6ae0-11ec-0000-020000000000"/>
    <resource>
      <MedicationAdministration>
        <meta>
          <profile value="http://nictiz.nl/fhir/StructureDefinition/mp-MedicationAdministration2"/>
        </meta>
        <text>
          <status value="extensions"/>
          <div xmlns="http://www.w3.org/1999/xhtml">
            <table>
              <caption>Medicatietoediening. Subject: Patient, P. XXX_Schut. Id: MBH_300_SCRIPT1_MTD2_Negatief (urn:oid:2.16.840.1.113883.2.4.3.11.999.77.18629005.1), Categorie: <span title="toediening van medicatie (18629005 - SNOMED CT)">toediening van medicatie</span>, Status: onbekend</caption>
              <tbody>
                <tr>
                  <th>Medicatie</th>
                  <td>ECANSYA TABLET FILMOMHULD 500MG</td>
                </tr>
                <tr>
                  <th>Datum/tijd</th>
                  <td>${DATE, T, D, +0}T09:10:00+02:00</td>
                </tr>
                <tr>
                  <th>Ondersteunende informatie</th>
                  <td>relatie naar toedieningsafspraak met identificatie: MBH_300_SCRIPT1_TA || 2.16.840.1.113883.2.4.3.11.999.77.422037009.1 (Id: MBH_300_SCRIPT1_TA (urn:oid:2.16.840.1.113883.2.4.3.11.999.77.422037009.1))</td>
                </tr>
                <tr>
                  <th>Dosering</th>
                  <td>
                    <div>Toedieningsweg: <span title="oraal (9 - G-Standaard thesaurus subtabel 0007)">oraal</span>
                    </div>
                    <div>Dosering: -2 stuk</div>
                  </td>
                </tr>
              </tbody>
            </table>
          </div>
        </text>
        <extension url="http://nictiz.nl/fhir/StructureDefinition/ext-RegistrationDateTime">
          <valueDateTime value="${DATE, T, D, +0}T09:10:00+02:00"/>
        </extension>
        <extension url="http://nictiz.nl/fhir/StructureDefinition/ext-MedicationAdministration2.ReasonForDeviation">
          <valueCodeableConcept>
            <coding>
              <system value="http://snomed.info/sct"/>
              <code value="152741000146103"/>
              <display value="medicatie uitgespuugd door patiënt"/>
            </coding>
          </valueCodeableConcept>
        </extension>
        <extension url="http://nictiz.nl/fhir/StructureDefinition/ext-PharmaceuticalTreatment.Identifier">
          <valueIdentifier>
            <system value="urn:oid:2.16.840.1.113883.2.4.3.11.999.77.1.1"/>
            <value value="MBH_300_SCRIPT1"/>
          </valueIdentifier>
        </extension>
        <identifier>
          <system value="urn:oid:2.16.840.1.113883.2.4.3.11.999.77.18629005.1"/>
          <value value="MBH_300_SCRIPT1_MTD2_Negatief"/>
        </identifier>
        <status value="unknown"/>
        <category>
          <coding>
            <system value="http://snomed.info/sct"/>
            <code value="18629005"/>
            <display value="toediening van medicatie"/>
          </coding>
        </category>
        <medicationReference>
          <reference value="urn:uuid:1a726d1d-6b67-11ec-0000-020000000000"/>
          <type value="Medication"/>
          <display value="ECANSYA TABLET FILMOMHULD 500MG"/>
        </medicationReference>
        <subject>
          <reference value="urn:uuid:3ae2f678-6b63-11ec-0000-020000000000"/>
          <type value="Patient"/>
          <display value="Patient, P. XXX_Schut"/>
        </subject>
        <supportingInformation>
          <type value="MedicationDispense"/>
          <identifier>
            <system value="urn:oid:2.16.840.1.113883.2.4.3.11.999.77.422037009.1"/>
            <value value="MBH_300_SCRIPT1_TA"/>
          </identifier>
          <display value="relatie naar toedieningsafspraak met identificatie: MBH_300_SCRIPT1_TA || 2.16.840.1.113883.2.4.3.11.999.77.422037009.1"/>
        </supportingInformation>
        <effectiveDateTime value="${DATE, T, D, +0}T09:10:00+02:00"/>
        <performer>
          <actor>
            <reference value="urn:uuid:a757282e-6b76-11ec-0000-020000000000"/>
            <type value="PractitionerRole"/>
            <display value="Healthcare professional (role), Jantien Toedien, Verpleegkundigen, niet nader gespecificeerd, Thuiszorg Om en Bij"/>
          </actor>
        </performer>
        <dosage>
          <route>
            <coding>
              <system value="urn:oid:2.16.840.1.113883.2.4.4.9"/>
              <code value="9"/>
              <display value="oraal"/>
            </coding>
          </route>
          <dose>
            <extension url="http://hl7.org/fhir/StructureDefinition/iso21090-PQ-translation">
              <valueQuantity>
                <value value="-2"/>
                <unit value="stuk"/>
                <system value="urn:oid:2.16.840.1.113883.2.4.4.1.900.2"/>
                <code value="245"/>
              </valueQuantity>
            </extension>
            <value value="-2"/>
            <unit value="stuk"/>
            <system value="http://unitsofmeasure.org"/>
            <code value="1"/>
          </dose>
        </dosage>
      </MedicationAdministration>
    </resource>
    <request>
      <method value="POST"/>
      <url value="MedicationAdministration"/>
    </request>
  </entry>
  <entry>
    <fullUrl value="urn:uuid:34c0345d-6b36-11ec-0000-020000000000"/>
    <resource>
      <MedicationAdministration>
        <meta>
          <profile value="http://nictiz.nl/fhir/StructureDefinition/mp-MedicationAdministration2"/>
        </meta>
        <text>
          <status value="extensions"/>
          <div xmlns="http://www.w3.org/1999/xhtml">
            <table>
              <caption>Medicatietoediening. Subject: Patient, P. XXX_Schut. Id: MBH_300_SCRIPT1_MTD3 (urn:oid:2.16.840.1.113883.2.4.3.11.999.77.18629005.1), Categorie: <span title="toediening van medicatie (18629005 - SNOMED CT)">toediening van medicatie</span>, Status: onbekend</caption>
              <tbody>
                <tr>
                  <th>Medicatie</th>
                  <td>ECANSYA TABLET FILMOMHULD 500MG</td>
                </tr>
                <tr>
                  <th>Datum/tijd</th>
                  <td>${DATE, T, D, +0}T21:00:00+02:00</td>
                </tr>
                <tr>
                  <th>Ondersteunende informatie</th>
                  <td>relatie naar toedieningsafspraak met identificatie: MBH_300_SCRIPT1_TA || 2.16.840.1.113883.2.4.3.11.999.77.422037009.1 (Id: MBH_300_SCRIPT1_TA (urn:oid:2.16.840.1.113883.2.4.3.11.999.77.422037009.1))</td>
                </tr>
                <tr>
                  <th>Dosering</th>
                  <td>
                    <div>Toedieningsweg: <span title="oraal (9 - G-Standaard thesaurus subtabel 0007)">oraal</span>
                    </div>
                    <div>Dosering: 4 stuk</div>
                  </td>
                </tr>
              </tbody>
            </table>
          </div>
        </text>
        <extension url="http://nictiz.nl/fhir/StructureDefinition/ext-RegistrationDateTime">
          <valueDateTime value="${DATE, T, D, +0}T21:00:00+02:00"/>
        </extension>
        <extension url="http://nictiz.nl/fhir/StructureDefinition/ext-PharmaceuticalTreatment.Identifier">
          <valueIdentifier>
            <system value="urn:oid:2.16.840.1.113883.2.4.3.11.999.77.1.1"/>
            <value value="MBH_300_SCRIPT1"/>
          </valueIdentifier>
        </extension>
        <identifier>
          <system value="urn:oid:2.16.840.1.113883.2.4.3.11.999.77.18629005.1"/>
          <value value="MBH_300_SCRIPT1_MTD3"/>
        </identifier>
        <status value="unknown"/>
        <category>
          <coding>
            <system value="http://snomed.info/sct"/>
            <code value="18629005"/>
            <display value="toediening van medicatie"/>
          </coding>
        </category>
        <medicationReference>
          <reference value="urn:uuid:1a726d1d-6b67-11ec-0000-020000000000"/>
          <type value="Medication"/>
          <display value="ECANSYA TABLET FILMOMHULD 500MG"/>
        </medicationReference>
        <subject>
          <reference value="urn:uuid:3ae2f678-6b63-11ec-0000-020000000000"/>
          <type value="Patient"/>
          <display value="Patient, P. XXX_Schut"/>
        </subject>
        <supportingInformation>
          <type value="MedicationDispense"/>
          <identifier>
            <system value="urn:oid:2.16.840.1.113883.2.4.3.11.999.77.422037009.1"/>
            <value value="MBH_300_SCRIPT1_TA"/>
          </identifier>
          <display value="relatie naar toedieningsafspraak met identificatie: MBH_300_SCRIPT1_TA || 2.16.840.1.113883.2.4.3.11.999.77.422037009.1"/>
        </supportingInformation>
        <effectiveDateTime value="${DATE, T, D, +0}T21:00:00+02:00"/>
        <performer>
          <actor>
            <reference value="urn:uuid:a757282e-6b76-11ec-0000-020000000000"/>
            <type value="PractitionerRole"/>
            <display value="Healthcare professional (role), Jantien Toedien, Verpleegkundigen, niet nader gespecificeerd, Thuiszorg Om en Bij"/>
          </actor>
        </performer>
        <dosage>
          <route>
            <coding>
              <system value="urn:oid:2.16.840.1.113883.2.4.4.9"/>
              <code value="9"/>
              <display value="oraal"/>
            </coding>
          </route>
          <dose>
            <extension url="http://hl7.org/fhir/StructureDefinition/iso21090-PQ-translation">
              <valueQuantity>
                <value value="4"/>
                <unit value="stuk"/>
                <system value="urn:oid:2.16.840.1.113883.2.4.4.1.900.2"/>
                <code value="245"/>
              </valueQuantity>
            </extension>
            <value value="4"/>
            <unit value="stuk"/>
            <system value="http://unitsofmeasure.org"/>
            <code value="1"/>
          </dose>
        </dosage>
      </MedicationAdministration>
    </resource>
    <request>
      <method value="POST"/>
      <url value="MedicationAdministration"/>
    </request>
  </entry>
  <entry>
    <fullUrl value="urn:uuid:3ae2f678-6b63-11ec-0000-020000000000"/>
    <resource>
      <Patient>
        <meta>
          <profile value="http://nictiz.nl/fhir/StructureDefinition/nl-core-Patient"/>
        </meta>
        <text>
          <status value="extensions"/>
          <div xmlns="http://www.w3.org/1999/xhtml">
            <div>Id 999901059 (BSN), <span title="Naamsamenstelling: Eigennaam">P. XXX_Schut</span>, Vrouw, 17 november 1985</div>
          </div>
        </text>
        <identifier>
          <system value="http://fhir.nl/fhir/NamingSystem/bsn"/>
          <value value="999901059"/>
        </identifier>
        <name>
          <extension url="http://hl7.org/fhir/StructureDefinition/humanname-assembly-order">
            <valueCode value="NL1"/>
          </extension>
          <use value="official"/>
          <text value="P. XXX_Schut"/>
          <family value="XXX_Schut">
            <extension url="http://hl7.org/fhir/StructureDefinition/humanname-own-name">
              <valueString value="XXX_Schut"/>
            </extension>
          </family>
          <given value="P.">
            <extension url="http://hl7.org/fhir/StructureDefinition/iso21090-EN-qualifier">
              <valueCode value="IN"/>
            </extension>
          </given>
        </name>
        <gender value="female">
          <extension url="http://nictiz.nl/fhir/StructureDefinition/ext-CodeSpecification">
            <valueCodeableConcept>
              <coding>
                <system value="http://terminology.hl7.org/CodeSystem/v3-AdministrativeGender"/>
                <code value="F"/>
                <display value="Vrouw"/>
              </coding>
            </valueCodeableConcept>
          </extension>
        </gender>
        <birthDate value="1985-11-17"/>
      </Patient>
    </resource>
    <request>
      <method value="POST"/>
      <url value="Patient"/>
    </request>
  </entry>
  <entry>
    <fullUrl value="urn:uuid:a757282e-6b76-11ec-0000-020000000000"/>
    <resource>
      <PractitionerRole>
        <meta>
          <profile value="http://nictiz.nl/fhir/StructureDefinition/nl-core-HealthProfessional-PractitionerRole"/>
        </meta>
        <text>
          <status value="extensions"/>
          <div xmlns="http://www.w3.org/1999/xhtml">
            <table>
              <caption>Zorgverlenerrol. </caption>
              <tbody>
                <tr>
                  <th>Zorgverlener</th>
                  <td>
                    <div>Healthcare professional (person), Jantien Toedien</div>
                    <div>Healthcare provider (organization), Thuiszorg Om en Bij</div>
                  </td>
                </tr>
                <tr>
                  <th>Specialisme</th>
                  <td>
                    <span title="Verpleegkundigen, niet nader gespecificeerd (9100 - AGB-medisch specialisme)">Verpleegkundigen, niet nader gespecificeerd</span>
                  </td>
                </tr>
              </tbody>
            </table>
          </div>
        </text>
        <practitioner>
          <reference value="urn:uuid:f1e8c824-6b20-11ec-0000-020000000000"/>
          <type value="Practitioner"/>
          <display value="Healthcare professional (person), Jantien Toedien"/>
        </practitioner>
        <organization>
          <reference value="urn:uuid:b0d9956e-6a9d-11ec-0000-020000000000"/>
          <type value="Organization"/>
          <display value="Healthcare provider (organization), Thuiszorg Om en Bij"/>
        </organization>
        <specialty>
          <coding>
            <system value="urn:oid:2.16.840.1.113883.2.4.6.7"/>
            <version value="2020-10-23T00:00:00"/>
            <code value="9100"/>
            <display value="Verpleegkundigen, niet nader gespecificeerd"/>
          </coding>
        </specialty>
      </PractitionerRole>
    </resource>
    <request>
      <method value="POST"/>
      <url value="PractitionerRole"/>
    </request>
  </entry>
  <entry>
    <fullUrl value="urn:uuid:f1e8c824-6b20-11ec-0000-020000000000"/>
    <resource>
      <Practitioner>
        <meta>
          <profile value="http://nictiz.nl/fhir/StructureDefinition/nl-core-HealthProfessional-Practitioner"/>
        </meta>
        <text>
          <status value="extensions"/>
          <div xmlns="http://www.w3.org/1999/xhtml">
            <div>Id 222220000 (UZI-NR-PERS), Jantien Toedien</div>
          </div>
        </text>
        <identifier>
          <system value="http://fhir.nl/fhir/NamingSystem/uzi-nr-pers"/>
          <value value="222220000"/>
        </identifier>
        <name>
          <use value="official"/>
          <text value="Jantien Toedien"/>
          <family value="Toedien">
            <extension url="http://hl7.org/fhir/StructureDefinition/humanname-own-name">
              <valueString value="Toedien"/>
            </extension>
          </family>
          <given value="Jantien">
            <extension url="http://hl7.org/fhir/StructureDefinition/iso21090-EN-qualifier">
              <valueCode value="BR"/>
            </extension>
          </given>
        </name>
      </Practitioner>
    </resource>
    <request>
      <method value="POST"/>
      <url value="Practitioner"/>
    </request>
  </entry>
  <entry>
    <fullUrl value="urn:uuid:b0d9956e-6a9d-11ec-0000-020000000000"/>
    <resource>
      <Organization>
        <meta>
          <profile value="http://nictiz.nl/fhir/StructureDefinition/nl-core-HealthcareProvider-Organization"/>
        </meta>
        <text>
          <status value="extensions"/>
          <div xmlns="http://www.w3.org/1999/xhtml">
            <table>
              <caption>Organisatie. Id: 11110000 (URA)</caption>
              <tbody>
                <tr>
                  <th>Naam</th>
                  <td>Thuiszorg Om en Bij</td>
                </tr>
                <tr>
                  <th>Type</th>
                  <td>
                    <span title="Thuiszorg (T2 - organization-type)">Thuiszorg</span>
                  </td>
                </tr>
              </tbody>
            </table>
          </div>
        </text>
        <identifier>
          <system value="http://fhir.nl/fhir/NamingSystem/ura"/>
          <value value="11110000"/>
        </identifier>
        <type>
          <coding>
            <system value="http://nictiz.nl/fhir/NamingSystem/organization-type"/>
            <code value="T2"/>
            <display value="Thuiszorg"/>
          </coding>
        </type>
        <name value="Thuiszorg Om en Bij"/>
      </Organization>
    </resource>
    <request>
      <method value="POST"/>
      <url value="Organization"/>
    </request>
  </entry>
  <entry>
    <fullUrl value="urn:uuid:1a726d1d-6b67-11ec-0000-020000000000"/>
    <resource>
      <Medication>
        <meta>
          <profile value="http://nictiz.nl/fhir/StructureDefinition/mp-PharmaceuticalProduct"/>
        </meta>
        <text>
          <status value="extensions"/>
          <div xmlns="http://www.w3.org/1999/xhtml">
            <table>
              <tbody>
                <tr>
                  <th>Code</th>
                  <td>
                    <span title="ECANSYA TABLET FILMOMHULD 500MG (3060195 - G-Standaard HPK)">ECANSYA TABLET FILMOMHULD 500MG</span>
                  </td>
                </tr>
              </tbody>
            </table>
          </div>
        </text>
        <code>
          <coding>
            <system value="urn:oid:2.16.840.1.113883.2.4.4.7"/>
            <code value="3060195"/>
            <display value="ECANSYA TABLET FILMOMHULD 500MG"/>
            <userSelected value="true"/>
          </coding>
          <coding>
            <system value="urn:oid:2.16.840.1.113883.2.4.4.10"/>
            <code value="59366"/>
            <display value="CAPECITABINE TABLET FO 500MG"/>
          </coding>
          <coding>
            <system value="urn:oid:2.16.840.1.113883.2.4.4.1"/>
            <code value="112984"/>
            <display value="CAPECITABINE TABLET FO 500MG"/>
          </coding>
          <text value="ECANSYA TABLET FILMOMHULD 500MG"/>
        </code>
      </Medication>
    </resource>
    <request>
      <method value="POST"/>
      <url value="Medication"/>
    </request>
  </entry>
</Bundle>
