{
  "resourceType": "Bundle",
  "id": "mgsets-mp-smg-kwal-TA-script3-v30",
  "type": "transaction",
  "entry": [ {
    "fullUrl": "urn:uuid:d7caaf0d-6a97-11ec-0000-020000000000",
    "resource": {
      "resourceType": "MedicationDispense",
      "meta": {
        "profile": [ "http://nictiz.nl/fhir/StructureDefinition/mp-AdministrationAgreement" ]
      },
      "text": {
        "status": "extensions",
        "div": "<div xmlns=\"http://www.w3.org/1999/xhtml\">\n            <table>\n              <caption>MedicationDispense. Subject: Patient, H. XXX_Kerkhoff. Id: MBH_300_script3_TA (urn:oid:2.16.840.1.113883.2.4.3.11.999.77.422037009.1), Categorie: <span title=\"toedieningsafspraak (422037009 - SNOMED CT)\">toedieningsafspraak</span>, Status: onbekend<span style=\"display: block;\">Uitvoerende: Healthcare provider (organization), Apotheek De Gulle Gaper</span>\n              </caption>\n              <tbody>\n                <tr>\n                  <th>Gebaseerd op</th>\n                  <td>relatie naar medicatieafspraak met identificatie: MBH_300_script3_MA || 2.16.840.1.113883.2.4.3.11.999.77.16076005.1 (Id: MBH_300_script3_MA (urn:oid:2.16.840.1.113883.2.4.3.11.999.77.16076005.1))</td>\n                </tr>\n                <tr>\n                  <th>Medicatie</th>\n                  <td>NITROGLYCERINE SDZ OROMUC SPRAY</td>\n                </tr>\n                <tr>\n                  <th>Doseerinstructie</th>\n                  <td>\n                    <div>Instructie: <span title=\"overig (OTH - http://terminology.hl7.org/CodeSystem/v3-NullFlavor)\">overig</span>\n                    </div>\n                    <div>Zo nodig: <span title=\"Bij pijn (1028 - nhg-tabel-25-gebruiksvoorschrift#aanvullend-numeriek)\">Bij pijn</span>\n                    </div>\n                    <div>Toedieningsweg: <span title=\"oromucosaal (34 - G-Standaard thesaurus subtabel 0007)\">oromucosaal</span>\n                    </div>\n                    <div>Dosering: doseAndRate TODO</div>\n                  </td>\n                </tr>\n              </tbody>\n            </table>\n          </div>"
      },
      "extension": [ {
        "url": "http://nictiz.nl/fhir/StructureDefinition/ext-AdministrationAgreement.AdditionalInformation",
        "valueString": "Gebruiksinstructie gegeven"
      }, {
        "url": "http://nictiz.nl/fhir/StructureDefinition/ext-AdministrationAgreement.AdministrationAgreementDateTime",
        "valueDateTime": "${DATE, T, D, -5}T09:15:00+02:00"
      }, {
        "url": "http://nictiz.nl/fhir/StructureDefinition/ext-RenderedDosageInstruction",
        "valueString": "Vanaf T - 5 dagen, tot en met T + 15 dagen, Bij pijn 1 à 2 spray, 1-2 doses onder de tong, na 5-10 min herhalen, max. 3 opeenvolgende doses. . Bij onvoldoende effect na in totaal 3 doses direct contact opnemen met een arts., oromucosaal"
      }, {
        "url": "http://nictiz.nl/fhir/StructureDefinition/ext-TimeInterval.Period",
        "valuePeriod": {
          "start": "${DATE, T, D, -5}T00:00:00+02:00",
          "end": "${DATE, T, D, +15}T23:59:00+02:00"
        }
      }, {
        "url": "http://nictiz.nl/fhir/StructureDefinition/ext-PharmaceuticalTreatment.Identifier",
        "valueIdentifier": {
          "system": "urn:oid:2.16.840.1.113883.2.4.3.11.999.77.1.1",
          "value": "MBH_300_script3"
        }
      } ],
      "identifier": [ {
        "system": "urn:oid:2.16.840.1.113883.2.4.3.11.999.77.422037009.1",
        "value": "MBH_300_script3_TA"
      } ],
      "status": "unknown",
      "category": {
        "coding": [ {
          "system": "http://snomed.info/sct",
          "code": "422037009",
          "display": "toedieningsafspraak"
        } ]
      },
      "medicationReference": {
        "reference": "urn:uuid:d11cb91d-6b50-11ec-0000-020000000000",
        "type": "Medication",
        "display": "NITROGLYCERINE SDZ OROMUC SPRAY"
      },
      "subject": {
        "reference": "urn:uuid:22f07e1e-6b17-11ec-0000-020000000000",
        "type": "Patient",
        "display": "Patient, H. XXX_Kerkhoff"
      },
      "performer": [ {
        "actor": {
          "reference": "urn:uuid:98d231d8-6b0c-11ec-0000-020000000000",
          "type": "Organization",
          "display": "Healthcare provider (organization), Apotheek De Gulle Gaper"
        }
      } ],
      "authorizingPrescription": [ {
        "type": "MedicationRequest",
        "identifier": {
          "system": "urn:oid:2.16.840.1.113883.2.4.3.11.999.77.16076005.1",
          "value": "MBH_300_script3_MA"
        },
        "display": "relatie naar medicatieafspraak met identificatie: MBH_300_script3_MA || 2.16.840.1.113883.2.4.3.11.999.77.16076005.1"
      } ],
      "dosageInstruction": [ {
        "additionalInstruction": [ {
          "coding": [ {
            "system": "http://terminology.hl7.org/CodeSystem/v3-NullFlavor",
            "code": "OTH",
            "display": "overig"
          } ],
          "text": "1-2 doses onder de tong, na 5-10 min herhalen, max. 3 opeenvolgende doses. . Bij onvoldoende effect na in totaal 3 doses direct contact opnemen met een arts."
        } ],
        "asNeededCodeableConcept": {
          "coding": [ {
            "system": "https://referentiemodel.nhg.org/tabellen/nhg-tabel-25-gebruiksvoorschrift#aanvullend-numeriek",
            "code": "1028",
            "display": "Bij pijn"
          } ]
        },
        "route": {
          "coding": [ {
            "system": "urn:oid:2.16.840.1.113883.2.4.4.9",
            "code": "34",
            "display": "oromucosaal"
          } ]
        },
        "doseAndRate": [ {
          "doseRange": {
            "low": {
              "extension": [ {
                "url": "http://hl7.org/fhir/StructureDefinition/iso21090-PQ-translation",
                "valueQuantity": {
                  "value": 1,
                  "unit": "Spray",
                  "system": "urn:oid:2.16.840.1.113883.2.4.4.1.900.2",
                  "code": "303"
                }
              } ],
              "value": 1,
              "unit": "Spray",
              "system": "http://unitsofmeasure.org",
              "code": "[drp]"
            },
            "high": {
              "extension": [ {
                "url": "http://hl7.org/fhir/StructureDefinition/iso21090-PQ-translation",
                "valueQuantity": {
                  "value": 2,
                  "unit": "Spray",
                  "system": "urn:oid:2.16.840.1.113883.2.4.4.1.900.2",
                  "code": "303"
                }
              } ],
              "value": 2,
              "unit": "Spray",
              "system": "http://unitsofmeasure.org",
              "code": "[drp]"
            }
          }
        } ]
      } ]
    },
    "request": {
      "method": "POST",
      "url": "MedicationDispense"
    }
  }, {
    "fullUrl": "urn:uuid:22f07e1e-6b17-11ec-0000-020000000000",
    "resource": {
      "resourceType": "Patient",
      "meta": {
        "profile": [ "http://nictiz.nl/fhir/StructureDefinition/nl-core-Patient" ]
      },
      "text": {
        "status": "extensions",
        "div": "<div xmlns=\"http://www.w3.org/1999/xhtml\">\n            <div>Id 999900687 (BSN), <span title=\"Naamsamenstelling: Eigennaam\">H. XXX_Kerkhoff</span>, Man, 9 november 1963</div>\n          </div>"
      },
      "identifier": [ {
        "system": "http://fhir.nl/fhir/NamingSystem/bsn",
        "value": "999900687"
      } ],
      "name": [ {
        "extension": [ {
          "url": "http://hl7.org/fhir/StructureDefinition/humanname-assembly-order",
          "valueCode": "NL1"
        } ],
        "use": "official",
        "text": "H. XXX_Kerkhoff",
        "family": "XXX_Kerkhoff",
        "_family": {
          "extension": [ {
            "url": "http://hl7.org/fhir/StructureDefinition/humanname-own-name",
            "valueString": "XXX_Kerkhoff"
          } ]
        },
        "given": [ "H." ],
        "_given": [ {
          "extension": [ {
            "url": "http://hl7.org/fhir/StructureDefinition/iso21090-EN-qualifier",
            "valueCode": "IN"
          } ]
        } ]
      } ],
      "gender": "male",
      "_gender": {
        "extension": [ {
          "url": "http://nictiz.nl/fhir/StructureDefinition/ext-CodeSpecification",
          "valueCodeableConcept": {
            "coding": [ {
              "system": "http://terminology.hl7.org/CodeSystem/v3-AdministrativeGender",
              "code": "M",
              "display": "Man"
            } ]
          }
        } ]
      },
      "birthDate": "1963-11-09"
    },
    "request": {
      "method": "POST",
      "url": "Patient"
    }
  }, {
    "fullUrl": "urn:uuid:98d231d8-6b0c-11ec-0000-020000000000",
    "resource": {
      "resourceType": "Organization",
      "meta": {
        "profile": [ "http://nictiz.nl/fhir/StructureDefinition/nl-core-HealthcareProvider-Organization" ]
      },
      "text": {
        "status": "extensions",
        "div": "<div xmlns=\"http://www.w3.org/1999/xhtml\">\n            <table>\n              <caption>Organisatie. Id: 01236578 (URA)</caption>\n              <tbody>\n                <tr>\n                  <th>Naam</th>\n                  <td>Apotheek De Gulle Gaper</td>\n                </tr>\n              </tbody>\n            </table>\n          </div>"
      },
      "identifier": [ {
        "system": "http://fhir.nl/fhir/NamingSystem/ura",
        "value": "01236578"
      } ],
      "name": "Apotheek De Gulle Gaper"
    },
    "request": {
      "method": "POST",
      "url": "Organization"
    }
  }, {
    "fullUrl": "urn:uuid:d11cb91d-6b50-11ec-0000-020000000000",
    "resource": {
      "resourceType": "Medication",
      "meta": {
        "profile": [ "http://nictiz.nl/fhir/StructureDefinition/mp-PharmaceuticalProduct" ]
      },
      "text": {
        "status": "extensions",
        "div": "<div xmlns=\"http://www.w3.org/1999/xhtml\">\n            <table>\n              <tbody>\n                <tr>\n                  <th>Code</th>\n                  <td>\n                    <span title=\"NITROGLYCERINE SDZ OROMUC SPRAY (1822454 - G-Standaard HPK)\">NITROGLYCERINE SDZ OROMUC SPRAY</span>\n                  </td>\n                </tr>\n              </tbody>\n            </table>\n          </div>"
      },
      "code": {
        "coding": [ {
          "system": "urn:oid:2.16.840.1.113883.2.4.4.7",
          "code": "1822454",
          "display": "NITROGLYCERINE SDZ OROMUC SPRAY",
          "userSelected": true
        }, {
          "system": "urn:oid:2.16.840.1.113883.2.4.4.10",
          "code": "72206",
          "display": "NITROGLYCERINE SPRAY SUBLING. 0,4MG/DO"
        }, {
          "system": "urn:oid:2.16.840.1.113883.2.4.4.1",
          "code": "119431",
          "display": "NITROGLYCERINE SPRAY SUBLING. 0,4MG/DO"
        } ],
        "text": "NITROGLYCERINE SDZ OROMUC SPRAY"
      }
    },
    "request": {
      "method": "POST",
      "url": "Medication"
    }
  } ]
}