{
  "resourceType": "Bundle",
  "id": "mgsets-mp-smg-kwal-MTD-script5-v30",
  "type": "transaction",
  "entry": [ {
    "fullUrl": "urn:uuid:b70cb45d-6b19-11ec-0000-020000000000",
    "resource": {
      "resourceType": "MedicationAdministration",
      "meta": {
        "profile": [ "http://nictiz.nl/fhir/StructureDefinition/mp-MedicationAdministration2" ]
      },
      "text": {
        "status": "extensions",
        "div": "<div xmlns=\"http://www.w3.org/1999/xhtml\">\n            <table>\n              <caption>Medicatietoediening. Subject: Patient, J. de XXX_Luzac. Id: MBH_300_SCRIPT5_MTD (urn:oid:2.16.840.1.113883.2.4.3.11.999.77.18629005.1), Categorie: <span title=\"toediening van medicatie (18629005 - SNOMED CT)\">toediening van medicatie</span>, Status: onbekend</caption>\n              <tbody>\n                <tr>\n                  <th>Medicatie</th>\n                  <td>TEMAZEPAM AUROBINDO CAPSULE 20MG</td>\n                </tr>\n                <tr>\n                  <th>Datum/tijd</th>\n                  <td>${DATE, T, D, -1}T20:00:00+02:00</td>\n                </tr>\n                <tr>\n                  <th>Dosering</th>\n                  <td>\n                    <div>Toedieningsweg: <span title=\"oraal (9 - G-Standaard thesaurus subtabel 0007)\">oraal</span>\n                    </div>\n                    <div>Dosering: 1 stuk</div>\n                  </td>\n                </tr>\n              </tbody>\n            </table>\n          </div>"
      },
      "extension": [ {
        "url": "http://nictiz.nl/fhir/StructureDefinition/ext-RegistrationDateTime",
        "valueDateTime": "${DATE, T, D, -1}T20:00:00+02:00"
      }, {
        "url": "http://nictiz.nl/fhir/StructureDefinition/ext-PharmaceuticalTreatment.Identifier",
        "valueIdentifier": {
          "system": "urn:oid:2.16.840.1.113883.2.4.3.11.999.77.1.1",
          "value": "MBH_300_SCRIPT5"
        }
      } ],
      "identifier": [ {
        "system": "urn:oid:2.16.840.1.113883.2.4.3.11.999.77.18629005.1",
        "value": "MBH_300_SCRIPT5_MTD"
      } ],
      "status": "unknown",
      "category": {
        "coding": [ {
          "system": "http://snomed.info/sct",
          "code": "18629005",
          "display": "toediening van medicatie"
        } ]
      },
      "medicationReference": {
        "reference": "urn:uuid:a022d704-6b40-11ec-0000-020000000000",
        "type": "Medication",
        "display": "TEMAZEPAM AUROBINDO CAPSULE 20MG"
      },
      "subject": {
        "reference": "urn:uuid:16519c1e-6b27-11ec-0000-020000000000",
        "type": "Patient",
        "display": "Patient, J. de XXX_Luzac"
      },
      "effectiveDateTime": "${DATE, T, D, -1}T20:00:00+02:00",
      "performer": [ {
        "actor": {
          "reference": "urn:uuid:a757282e-6b76-11ec-0000-020000000000",
          "type": "PractitionerRole",
          "display": "Healthcare professional (role), Jantien Toedien, Verpleegkundigen, niet nader gespecificeerd, Thuiszorg Om en Bij"
        }
      } ],
      "request": {
        "extension": [ {
          "url": "http://nictiz.nl/fhir/StructureDefinition/ext-ResourceCategory",
          "valueCodeableConcept": {
            "coding": [ {
              "system": "http://snomed.info/sct",
              "code": "33633005",
              "display": "voorschrijven"
            } ]
          }
        } ],
        "type": "MedicationRequest",
        "identifier": {
          "system": "urn:oid:2.16.840.1.113883.2.4.3.11.999.77.16076005.1",
          "value": "MBH_300_SCRIPT5_MA"
        },
        "display": "relatie naar medicatieafspraak met identificatie: MBH_300_SCRIPT5_MA || 2.16.840.1.113883.2.4.3.11.999.77.16076005.1"
      },
      "dosage": {
        "route": {
          "coding": [ {
            "system": "urn:oid:2.16.840.1.113883.2.4.4.9",
            "code": "9",
            "display": "oraal"
          } ]
        },
        "dose": {
          "extension": [ {
            "url": "http://hl7.org/fhir/StructureDefinition/iso21090-PQ-translation",
            "valueQuantity": {
              "value": 1,
              "unit": "stuk",
              "system": "urn:oid:2.16.840.1.113883.2.4.4.1.900.2",
              "code": "245"
            }
          } ],
          "value": 1,
          "unit": "stuk",
          "system": "http://unitsofmeasure.org",
          "code": "1"
        }
      }
    },
    "request": {
      "method": "POST",
      "url": "MedicationAdministration"
    }
  }, {
    "fullUrl": "urn:uuid:16519c1e-6b27-11ec-0000-020000000000",
    "resource": {
      "resourceType": "Patient",
      "meta": {
        "profile": [ "http://nictiz.nl/fhir/StructureDefinition/nl-core-Patient" ]
      },
      "text": {
        "status": "extensions",
        "div": "<div xmlns=\"http://www.w3.org/1999/xhtml\">\n            <div>Id 999910954 (BSN), <span title=\"Naamsamenstelling: Eigennaam\">J. de XXX_Luzac</span>, Vrouw, 23 augustus 1954</div>\n          </div>"
      },
      "identifier": [ {
        "system": "http://fhir.nl/fhir/NamingSystem/bsn",
        "value": "999910954"
      } ],
      "name": [ {
        "extension": [ {
          "url": "http://hl7.org/fhir/StructureDefinition/humanname-assembly-order",
          "valueCode": "NL1"
        } ],
        "use": "official",
        "text": "J. de XXX_Luzac",
        "family": "de XXX_Luzac",
        "_family": {
          "extension": [ {
            "url": "http://hl7.org/fhir/StructureDefinition/humanname-own-prefix",
            "valueString": "de"
          }, {
            "url": "http://hl7.org/fhir/StructureDefinition/humanname-own-name",
            "valueString": "XXX_Luzac"
          } ]
        },
        "given": [ "J." ],
        "_given": [ {
          "extension": [ {
            "url": "http://hl7.org/fhir/StructureDefinition/iso21090-EN-qualifier",
            "valueCode": "IN"
          } ]
        } ]
      } ],
      "gender": "female",
      "_gender": {
        "extension": [ {
          "url": "http://nictiz.nl/fhir/StructureDefinition/ext-CodeSpecification",
          "valueCodeableConcept": {
            "coding": [ {
              "system": "http://terminology.hl7.org/CodeSystem/v3-AdministrativeGender",
              "code": "F",
              "display": "Vrouw"
            } ]
          }
        } ]
      },
      "birthDate": "1954-08-23"
    },
    "request": {
      "method": "POST",
      "url": "Patient"
    }
  }, {
    "fullUrl": "urn:uuid:a757282e-6b76-11ec-0000-020000000000",
    "resource": {
      "resourceType": "PractitionerRole",
      "meta": {
        "profile": [ "http://nictiz.nl/fhir/StructureDefinition/nl-core-HealthProfessional-PractitionerRole" ]
      },
      "text": {
        "status": "extensions",
        "div": "<div xmlns=\"http://www.w3.org/1999/xhtml\">\n            <table>\n              <caption>Zorgverlenerrol. </caption>\n              <tbody>\n                <tr>\n                  <th>Zorgverlener</th>\n                  <td>\n                    <div>Healthcare professional (person), Jantien Toedien</div>\n                    <div>Healthcare provider (organization), Thuiszorg Om en Bij</div>\n                  </td>\n                </tr>\n                <tr>\n                  <th>Specialisme</th>\n                  <td>\n                    <span title=\"Verpleegkundigen, niet nader gespecificeerd (9100 - AGB-medisch specialisme)\">Verpleegkundigen, niet nader gespecificeerd</span>\n                  </td>\n                </tr>\n              </tbody>\n            </table>\n          </div>"
      },
      "practitioner": {
        "reference": "urn:uuid:f1e8c824-6b20-11ec-0000-020000000000",
        "type": "Practitioner",
        "display": "Healthcare professional (person), Jantien Toedien"
      },
      "organization": {
        "reference": "urn:uuid:b0d9956e-6a9d-11ec-0000-020000000000",
        "type": "Organization",
        "display": "Healthcare provider (organization), Thuiszorg Om en Bij"
      },
      "specialty": [ {
        "coding": [ {
          "system": "urn:oid:2.16.840.1.113883.2.4.6.7",
          "version": "2020-10-23T00:00:00",
          "code": "9100",
          "display": "Verpleegkundigen, niet nader gespecificeerd"
        } ]
      } ]
    },
    "request": {
      "method": "POST",
      "url": "PractitionerRole"
    }
  }, {
    "fullUrl": "urn:uuid:f1e8c824-6b20-11ec-0000-020000000000",
    "resource": {
      "resourceType": "Practitioner",
      "meta": {
        "profile": [ "http://nictiz.nl/fhir/StructureDefinition/nl-core-HealthProfessional-Practitioner" ]
      },
      "text": {
        "status": "extensions",
        "div": "<div xmlns=\"http://www.w3.org/1999/xhtml\">\n            <div>Id 222220000 (UZI-NR-PERS), Jantien Toedien</div>\n          </div>"
      },
      "identifier": [ {
        "system": "http://fhir.nl/fhir/NamingSystem/uzi-nr-pers",
        "value": "222220000"
      } ],
      "name": [ {
        "use": "official",
        "text": "Jantien Toedien",
        "family": "Toedien",
        "_family": {
          "extension": [ {
            "url": "http://hl7.org/fhir/StructureDefinition/humanname-own-name",
            "valueString": "Toedien"
          } ]
        },
        "given": [ "Jantien" ],
        "_given": [ {
          "extension": [ {
            "url": "http://hl7.org/fhir/StructureDefinition/iso21090-EN-qualifier",
            "valueCode": "BR"
          } ]
        } ]
      } ]
    },
    "request": {
      "method": "POST",
      "url": "Practitioner"
    }
  }, {
    "fullUrl": "urn:uuid:b0d9956e-6a9d-11ec-0000-020000000000",
    "resource": {
      "resourceType": "Organization",
      "meta": {
        "profile": [ "http://nictiz.nl/fhir/StructureDefinition/nl-core-HealthcareProvider-Organization" ]
      },
      "text": {
        "status": "extensions",
        "div": "<div xmlns=\"http://www.w3.org/1999/xhtml\">\n            <table>\n              <caption>Organisatie. Id: 11110000 (URA)</caption>\n              <tbody>\n                <tr>\n                  <th>Naam</th>\n                  <td>Thuiszorg Om en Bij</td>\n                </tr>\n                <tr>\n                  <th>Type</th>\n                  <td>\n                    <span title=\"Thuiszorg (T2 - organization-type)\">Thuiszorg</span>\n                  </td>\n                </tr>\n              </tbody>\n            </table>\n          </div>"
      },
      "identifier": [ {
        "system": "http://fhir.nl/fhir/NamingSystem/ura",
        "value": "11110000"
      } ],
      "type": [ {
        "coding": [ {
          "system": "http://nictiz.nl/fhir/NamingSystem/organization-type",
          "code": "T2",
          "display": "Thuiszorg"
        } ]
      } ],
      "name": "Thuiszorg Om en Bij"
    },
    "request": {
      "method": "POST",
      "url": "Organization"
    }
  }, {
    "fullUrl": "urn:uuid:a022d704-6b40-11ec-0000-020000000000",
    "resource": {
      "resourceType": "Medication",
      "meta": {
        "profile": [ "http://nictiz.nl/fhir/StructureDefinition/mp-PharmaceuticalProduct" ]
      },
      "text": {
        "status": "extensions",
        "div": "<div xmlns=\"http://www.w3.org/1999/xhtml\">\n            <table>\n              <tbody>\n                <tr>\n                  <th>Code</th>\n                  <td>\n                    <span title=\"TEMAZEPAM AUROBINDO CAPSULE 20MG (611662 - G-Standaard HPK)\">TEMAZEPAM AUROBINDO CAPSULE 20MG</span>\n                  </td>\n                </tr>\n              </tbody>\n            </table>\n          </div>"
      },
      "code": {
        "coding": [ {
          "system": "urn:oid:2.16.840.1.113883.2.4.4.7",
          "code": "611662",
          "display": "TEMAZEPAM AUROBINDO CAPSULE 20MG",
          "userSelected": true
        }, {
          "system": "urn:oid:2.16.840.1.113883.2.4.4.10",
          "code": "15814",
          "display": "TEMAZEPAM CAPSULE 20MG"
        }, {
          "system": "urn:oid:2.16.840.1.113883.2.4.4.1",
          "code": "38644",
          "display": "TEMAZEPAM CAPSULE 20MG"
        } ],
        "text": "TEMAZEPAM AUROBINDO CAPSULE 20MG"
      }
    },
    "request": {
      "method": "POST",
      "url": "Medication"
    }
  } ]
}