{
  "resourceType": "Bundle",
  "id": "mgsets-mp-smg-kwal-MGB-script1-v30",
  "type": "transaction",
  "entry": [ {
    "fullUrl": "urn:uuid:48148726-6adf-11ec-0000-020000000000",
    "resource": {
      "resourceType": "MedicationStatement",
      "meta": {
        "profile": [ "http://nictiz.nl/fhir/StructureDefinition/mp-MedicationUse2" ]
      },
      "text": {
        "status": "extensions",
        "div": "<div xmlns=\"http://www.w3.org/1999/xhtml\">\n            <table>\n              <caption>MedicationStatement. Subject: Patient, P. XXX_Schut. Id: MBH_300_SCRIPT1_MGB (urn:oid:2.16.840.1.113883.2.4.3.11.999.77.6.1), Categorie: <span title=\"bevinding betreffende gedrag met betrekking tot medicatieregime (422979000 - SNOMED CT)\">bevinding betreffende gedrag met betrekking tot medicatieregime</span>, Status: actief</caption>\n              <tbody>\n                <tr>\n                  <th>Medicatie</th>\n                  <td>ECANSYA TABLET FILMOMHULD 500MG</td>\n                </tr>\n                <tr>\n                  <th>Datum/tijd</th>\n                  <td>${DATE, T, D, +0}T00:00:00+02:00 - ${DATE, T, D, +5}T23:59:59+02:00</td>\n                </tr>\n                <tr>\n                  <th>Informant</th>\n                  <td>${DATE, T, D, +7}T11:10:59+02:00</td>\n                </tr>\n                <tr>\n                  <th>Ondersteunende informatie</th>\n                  <td>relatie naar toedieningsafspraak (Id: MBH_300_SCRIPT1_TA_WIJZIGING (urn:oid:2.16.840.1.113883.2.4.3.11.999.77.422037009.1))</td>\n                </tr>\n                <tr>\n                  <th>Dosering</th>\n                  <td>\n                    <div>Timing: <div>14 dag09:00:00, 21:00:00. Tijden zo precies mogelijk aanhouden</div>\n                    </div>\n                    <div>Toedieningsweg: <span title=\"oraal (9 - G-Standaard thesaurus subtabel 0007)\">oraal</span>\n                    </div>\n                    <div>Dosering: doseAndRate TODO</div>\n                  </td>\n                </tr>\n              </tbody>\n            </table>\n          </div>"
      },
      "extension": [ {
        "url": "http://nictiz.nl/fhir/StructureDefinition/ext-RenderedDosageInstruction",
        "valueString": "Vanaf <T-9D{00:00:00}> t/m <-5D{23:59:59}>, 2 maal per dag 5 stuks, oraal"
      }, {
        "url": "http://nictiz.nl/fhir/StructureDefinition/ext-MedicationUse2.Prescriber",
        "valueReference": {
          "reference": "urn:uuid:36322824-6aed-11ec-0000-020000000000",
          "type": "PractitionerRole",
          "display": "Healthcare professional (role), Peter van Pulver, Huisartsen, niet nader gespecificeerd, Huisartsenpraktijk Pulver & Partners"
        }
      }, {
        "url": "http://nictiz.nl/fhir/StructureDefinition/ext-AsAgreedIndicator",
        "valueBoolean": true
      }, {
        "url": "http://nictiz.nl/fhir/StructureDefinition/ext-PharmaceuticalTreatment.Identifier",
        "valueIdentifier": {
          "system": "urn:oid:2.16.840.1.113883.2.4.3.11.999.77.1.1",
          "value": "MBH_300_SCRIPT1"
        }
      }, {
        "url": "http://nictiz.nl/fhir/StructureDefinition/ext-MedicationUse2.Author",
        "valueReference": {
          "reference": "urn:uuid:36322824-6aed-11ec-0000-020000000000",
          "type": "PractitionerRole",
          "display": "Healthcare professional (role), Peter van Pulver, Huisartsen, niet nader gespecificeerd, Huisartsenpraktijk Pulver & Partners"
        }
      } ],
      "modifierExtension": [ {
        "url": "http://nictiz.nl/fhir/StructureDefinition/ext-InstructionsForUse.RepeatPeriodCyclicalSchedule",
        "valueDuration": {
          "value": 21,
          "unit": "dag",
          "system": "http://unitsofmeasure.org",
          "code": "d"
        }
      } ],
      "identifier": [ {
        "system": "urn:oid:2.16.840.1.113883.2.4.3.11.999.77.6.1",
        "value": "MBH_300_SCRIPT1_MGB"
      } ],
      "status": "active",
      "category": {
        "coding": [ {
          "system": "http://snomed.info/sct",
          "code": "422979000",
          "display": "bevinding betreffende gedrag met betrekking tot medicatieregime"
        } ]
      },
      "medicationReference": {
        "reference": "urn:uuid:1a726d1d-6b67-11ec-0000-020000000000",
        "type": "Medication",
        "display": "ECANSYA TABLET FILMOMHULD 500MG"
      },
      "subject": {
        "reference": "urn:uuid:3ae2f678-6b63-11ec-0000-020000000000",
        "type": "Patient",
        "display": "Patient, P. XXX_Schut"
      },
      "effectivePeriod": {
        "start": "${DATE, T, D, +0}T00:00:00+02:00",
        "end": "${DATE, T, D, +5}T23:59:59+02:00"
      },
      "dateAsserted": "${DATE, T, D, +7}T11:10:59+02:00",
      "derivedFrom": [ {
        "extension": [ {
          "url": "http://nictiz.nl/fhir/StructureDefinition/ext-ResourceCategory",
          "valueCodeableConcept": {
            "coding": [ {
              "system": "http://snomed.info/sct",
              "code": "422037009",
              "display": "toedieningsafspraak"
            } ]
          }
        } ],
        "type": "MedicationRequest",
        "identifier": {
          "system": "urn:oid:2.16.840.1.113883.2.4.3.11.999.77.422037009.1",
          "value": "MBH_300_SCRIPT1_TA_WIJZIGING"
        },
        "display": "relatie naar toedieningsafspraak"
      } ],
      "dosage": [ {
        "timing": {
          "repeat": {
            "extension": [ {
              "url": "http://hl7.org/fhir/StructureDefinition/timing-exact",
              "valueBoolean": true
            } ],
            "boundsDuration": {
              "value": 14,
              "unit": "dag",
              "system": "http://unitsofmeasure.org",
              "code": "d"
            },
            "timeOfDay": [ "09:00:00", "21:00:00" ]
          }
        },
        "route": {
          "coding": [ {
            "system": "urn:oid:2.16.840.1.113883.2.4.4.9",
            "code": "9",
            "display": "oraal"
          } ]
        },
        "doseAndRate": [ {
          "doseQuantity": {
            "extension": [ {
              "url": "http://hl7.org/fhir/StructureDefinition/iso21090-PQ-translation",
              "valueQuantity": {
                "value": 5,
                "unit": "stuk",
                "system": "urn:oid:2.16.840.1.113883.2.4.4.1.900.2",
                "code": "245"
              }
            } ],
            "value": 5,
            "unit": "stuk",
            "system": "http://unitsofmeasure.org",
            "code": "1"
          }
        } ]
      } ]
    },
    "request": {
      "method": "POST",
      "url": "MedicationStatement"
    }
  }, {
    "fullUrl": "urn:uuid:3ae2f678-6b63-11ec-0000-020000000000",
    "resource": {
      "resourceType": "Patient",
      "meta": {
        "profile": [ "http://nictiz.nl/fhir/StructureDefinition/nl-core-Patient" ]
      },
      "text": {
        "status": "extensions",
        "div": "<div xmlns=\"http://www.w3.org/1999/xhtml\">\n            <div>Id 999901059 (BSN), <span title=\"Naamsamenstelling: Eigennaam\">P. XXX_Schut</span>, Vrouw, 17 november 1985</div>\n          </div>"
      },
      "identifier": [ {
        "system": "http://fhir.nl/fhir/NamingSystem/bsn",
        "value": "999901059"
      } ],
      "name": [ {
        "extension": [ {
          "url": "http://hl7.org/fhir/StructureDefinition/humanname-assembly-order",
          "valueCode": "NL1"
        } ],
        "use": "official",
        "text": "P. XXX_Schut",
        "family": "XXX_Schut",
        "_family": {
          "extension": [ {
            "url": "http://hl7.org/fhir/StructureDefinition/humanname-own-name",
            "valueString": "XXX_Schut"
          } ]
        },
        "given": [ "P." ],
        "_given": [ {
          "extension": [ {
            "url": "http://hl7.org/fhir/StructureDefinition/iso21090-EN-qualifier",
            "valueCode": "IN"
          } ]
        } ]
      } ],
      "gender": "female",
      "_gender": {
        "extension": [ {
          "url": "http://nictiz.nl/fhir/StructureDefinition/ext-CodeSpecification",
          "valueCodeableConcept": {
            "coding": [ {
              "system": "http://terminology.hl7.org/CodeSystem/v3-AdministrativeGender",
              "code": "F",
              "display": "Vrouw"
            } ]
          }
        } ]
      },
      "birthDate": "1985-11-17"
    },
    "request": {
      "method": "POST",
      "url": "Patient"
    }
  }, {
    "fullUrl": "urn:uuid:36322824-6aed-11ec-0000-020000000000",
    "resource": {
      "resourceType": "PractitionerRole",
      "meta": {
        "profile": [ "http://nictiz.nl/fhir/StructureDefinition/nl-core-HealthProfessional-PractitionerRole" ]
      },
      "text": {
        "status": "extensions",
        "div": "<div xmlns=\"http://www.w3.org/1999/xhtml\">\n            <table>\n              <caption>Zorgverlenerrol. </caption>\n              <tbody>\n                <tr>\n                  <th>Zorgverlener</th>\n                  <td>\n                    <div>Healthcare professional (person), Peter van Pulver</div>\n                    <div>Healthcare provider (organization), Huisartsenpraktijk Pulver &amp; Partners</div>\n                  </td>\n                </tr>\n                <tr>\n                  <th>Specialisme</th>\n                  <td>\n                    <span title=\"Huisartsen, niet nader gespecificeerd (0100 - AGB-medisch specialisme)\">Huisartsen, niet nader gespecificeerd</span>\n                  </td>\n                </tr>\n              </tbody>\n            </table>\n          </div>"
      },
      "practitioner": {
        "reference": "urn:uuid:4a573558-6ad5-11ec-0000-020000000000",
        "type": "Practitioner",
        "display": "Healthcare professional (person), Peter van Pulver"
      },
      "organization": {
        "reference": "urn:uuid:7fa869d8-6b44-11ec-0000-020000000000",
        "type": "Organization",
        "display": "Healthcare provider (organization), Huisartsenpraktijk Pulver & Partners"
      },
      "specialty": [ {
        "coding": [ {
          "system": "urn:oid:2.16.840.1.113883.2.4.6.7",
          "version": "2020-10-23T00:00:00",
          "code": "0100",
          "display": "Huisartsen, niet nader gespecificeerd"
        } ]
      } ]
    },
    "request": {
      "method": "POST",
      "url": "PractitionerRole"
    }
  }, {
    "fullUrl": "urn:uuid:4a573558-6ad5-11ec-0000-020000000000",
    "resource": {
      "resourceType": "Practitioner",
      "meta": {
        "profile": [ "http://nictiz.nl/fhir/StructureDefinition/nl-core-HealthProfessional-Practitioner" ]
      },
      "text": {
        "status": "extensions",
        "div": "<div xmlns=\"http://www.w3.org/1999/xhtml\">\n            <div>Id 000001111 (UZI-NR-PERS), Peter van Pulver</div>\n          </div>"
      },
      "identifier": [ {
        "system": "http://fhir.nl/fhir/NamingSystem/uzi-nr-pers",
        "value": "000001111"
      } ],
      "name": [ {
        "use": "official",
        "text": "Peter van Pulver",
        "family": "van Pulver",
        "_family": {
          "extension": [ {
            "url": "http://hl7.org/fhir/StructureDefinition/humanname-own-prefix",
            "valueString": "van"
          }, {
            "url": "http://hl7.org/fhir/StructureDefinition/humanname-own-name",
            "valueString": "Pulver"
          } ]
        },
        "given": [ "Peter" ],
        "_given": [ {
          "extension": [ {
            "url": "http://hl7.org/fhir/StructureDefinition/iso21090-EN-qualifier",
            "valueCode": "BR"
          } ]
        } ]
      } ]
    },
    "request": {
      "method": "POST",
      "url": "Practitioner"
    }
  }, {
    "fullUrl": "urn:uuid:7fa869d8-6b44-11ec-0000-020000000000",
    "resource": {
      "resourceType": "Organization",
      "meta": {
        "profile": [ "http://nictiz.nl/fhir/StructureDefinition/nl-core-HealthcareProvider-Organization" ]
      },
      "text": {
        "status": "extensions",
        "div": "<div xmlns=\"http://www.w3.org/1999/xhtml\">\n            <table>\n              <caption>Organisatie. Id: 00001111 (URA)</caption>\n              <tbody>\n                <tr>\n                  <th>Naam</th>\n                  <td>Huisartsenpraktijk Pulver &amp; Partners</td>\n                </tr>\n                <tr>\n                  <th>Adres</th>\n                  <td>Dorpsstraat 1, 1234AA Ons Dorp (Werk)</td>\n                </tr>\n              </tbody>\n            </table>\n          </div>"
      },
      "identifier": [ {
        "system": "http://fhir.nl/fhir/NamingSystem/ura",
        "value": "00001111"
      } ],
      "name": "Huisartsenpraktijk Pulver & Partners",
      "address": [ {
        "extension": [ {
          "url": "http://nictiz.nl/fhir/StructureDefinition/ext-AddressInformation.AddressType",
          "valueCodeableConcept": {
            "coding": [ {
              "system": "http://terminology.hl7.org/CodeSystem/v3-AddressUse",
              "code": "WP",
              "display": "Werkadres"
            } ]
          }
        } ],
        "use": "work",
        "line": [ "Dorpsstraat 1" ],
        "_line": [ {
          "extension": [ {
            "url": "http://hl7.org/fhir/StructureDefinition/iso21090-ADXP-streetName",
            "valueString": "Dorpsstraat"
          }, {
            "url": "http://hl7.org/fhir/StructureDefinition/iso21090-ADXP-houseNumber",
            "valueString": "1"
          } ]
        } ],
        "city": "Ons Dorp",
        "postalCode": "1234AA"
      } ]
    },
    "request": {
      "method": "POST",
      "url": "Organization"
    }
  }, {
    "fullUrl": "urn:uuid:1a726d1d-6b67-11ec-0000-020000000000",
    "resource": {
      "resourceType": "Medication",
      "meta": {
        "profile": [ "http://nictiz.nl/fhir/StructureDefinition/mp-PharmaceuticalProduct" ]
      },
      "text": {
        "status": "extensions",
        "div": "<div xmlns=\"http://www.w3.org/1999/xhtml\">\n            <table>\n              <tbody>\n                <tr>\n                  <th>Code</th>\n                  <td>\n                    <span title=\"ECANSYA TABLET FILMOMHULD 500MG (3060195 - G-Standaard HPK)\">ECANSYA TABLET FILMOMHULD 500MG</span>\n                  </td>\n                </tr>\n              </tbody>\n            </table>\n          </div>"
      },
      "code": {
        "coding": [ {
          "system": "urn:oid:2.16.840.1.113883.2.4.4.7",
          "code": "3060195",
          "display": "ECANSYA TABLET FILMOMHULD 500MG",
          "userSelected": true
        }, {
          "system": "urn:oid:2.16.840.1.113883.2.4.4.10",
          "code": "59366",
          "display": "CAPECITABINE TABLET FO 500MG"
        }, {
          "system": "urn:oid:2.16.840.1.113883.2.4.4.1",
          "code": "112984",
          "display": "CAPECITABINE TABLET FO 500MG"
        } ],
        "text": "ECANSYA TABLET FILMOMHULD 500MG"
      }
    },
    "request": {
      "method": "POST",
      "url": "Medication"
    }
  } ]
}