{
  "resourceType": "Bundle",
  "id": "mgsets-mp-smg-kwal-MGB-script3-v30",
  "type": "transaction",
  "entry": [ {
    "fullUrl": "urn:uuid:407f4cbd-6b1b-11ec-0000-020000000000",
    "resource": {
      "resourceType": "MedicationStatement",
      "meta": {
        "profile": [ "http://nictiz.nl/fhir/StructureDefinition/mp-MedicationUse2" ]
      },
      "text": {
        "status": "extensions",
        "div": "<div xmlns=\"http://www.w3.org/1999/xhtml\">\n            <table>\n              <caption>MedicationStatement. Subject: Patient, H. XXX_Kerkhoff. Id: MBH_300_script3_MGB (urn:oid:2.16.840.1.113883.2.4.3.11.999.77.6.1), Categorie: <span title=\"bevinding betreffende gedrag met betrekking tot medicatieregime (422979000 - SNOMED CT)\">bevinding betreffende gedrag met betrekking tot medicatieregime</span>, Status: actief</caption>\n              <tbody>\n                <tr>\n                  <th>Medicatie</th>\n                  <td>NITROLINGUAL OROMUCOSALE SPRAY 0,4MG/DO FLAC 250DO</td>\n                </tr>\n                <tr>\n                  <th>Datum/tijd</th>\n                  <td>${DATE, T, D, -1}T00:00:00+02:00 - ${DATE, T, D, -1}T23:59:59+02:00</td>\n                </tr>\n                <tr>\n                  <th>Informant</th>\n                  <td>${DATE, T, D, +1}T09:15:00+02:00 - Patient, H. XXX_Kerkhoff</td>\n                </tr>\n                <tr>\n                  <th>Ondersteunende informatie</th>\n                  <td>relatie naar medicatieafspraak (Id: MBH_300_script3_MA (urn:oid:2.16.840.1.113883.2.4.3.11.999.77.16076005.1))</td>\n                </tr>\n                <tr>\n                  <th>Dosering</th>\n                  <td>\n                    <div>Instructie: <span title=\"overig (OTH - http://terminology.hl7.org/CodeSystem/v3-NullFlavor)\">overig</span>\n                    </div>\n                    <div>Zo nodig: <span title=\"Bij pijn (1028 - nhg-tabel-25-gebruiksvoorschrift#aanvullend-numeriek)\">Bij pijn</span>\n                    </div>\n                    <div>Toedieningsweg: <span title=\"oromucosaal (34 - G-Standaard thesaurus subtabel 0007)\">oromucosaal</span>\n                    </div>\n                    <div>Dosering: doseAndRate TODO</div>\n                    <div>Max dosering: 3 dosis / 1 dag (per period)</div>\n                  </td>\n                </tr>\n              </tbody>\n            </table>\n          </div>"
      },
      "extension": [ {
        "url": "http://nictiz.nl/fhir/StructureDefinition/ext-RenderedDosageInstruction",
        "valueString": "Vanaf <T-5D{08:15:00}> t/m <T+20D{09:15:00}>, zo nodig 1-2 doses onder de tong max. 3 opeenvolgende doses, oromucosaal"
      }, {
        "url": "http://nictiz.nl/fhir/StructureDefinition/ext-MedicationUse2.Prescriber",
        "valueReference": {
          "reference": "urn:uuid:4560482e-6aec-11ec-0000-020000000000",
          "type": "PractitionerRole",
          "display": "Healthcare professional (role), Bertine van Doorn, Huisartsen, niet nader gespecificeerd, Huisartsenpraktijk Pulver & Partners"
        }
      }, {
        "url": "http://nictiz.nl/fhir/StructureDefinition/ext-AsAgreedIndicator",
        "valueBoolean": true
      }, {
        "url": "http://nictiz.nl/fhir/StructureDefinition/ext-PharmaceuticalTreatment.Identifier",
        "valueIdentifier": {
          "system": "urn:oid:2.16.840.1.113883.2.4.3.11.999.77.1.1",
          "value": "MBH_300_script3"
        }
      }, {
        "url": "http://nictiz.nl/fhir/StructureDefinition/ext-MedicationUse2.Author",
        "valueReference": {
          "reference": "urn:uuid:4560482e-6aec-11ec-0000-020000000000",
          "type": "PractitionerRole",
          "display": "Healthcare professional (role), Bertine van Doorn, Huisartsen, niet nader gespecificeerd, Huisartsenpraktijk Pulver & Partners"
        }
      } ],
      "identifier": [ {
        "system": "urn:oid:2.16.840.1.113883.2.4.3.11.999.77.6.1",
        "value": "MBH_300_script3_MGB"
      } ],
      "status": "active",
      "category": {
        "coding": [ {
          "system": "http://snomed.info/sct",
          "code": "422979000",
          "display": "bevinding betreffende gedrag met betrekking tot medicatieregime"
        } ]
      },
      "medicationReference": {
        "reference": "urn:uuid:0e7b40e9-6aec-11ec-0000-020000000000",
        "type": "Medication",
        "display": "NITROLINGUAL OROMUCOSALE SPRAY 0,4MG/DO FLAC 250DO"
      },
      "subject": {
        "reference": "urn:uuid:22f07e1e-6b17-11ec-0000-020000000000",
        "type": "Patient",
        "display": "Patient, H. XXX_Kerkhoff"
      },
      "effectivePeriod": {
        "start": "${DATE, T, D, -1}T00:00:00+02:00",
        "end": "${DATE, T, D, -1}T23:59:59+02:00"
      },
      "dateAsserted": "${DATE, T, D, +1}T09:15:00+02:00",
      "informationSource": {
        "reference": "urn:uuid:22f07e1e-6b17-11ec-0000-020000000000",
        "type": "Patient",
        "display": "Patient, H. XXX_Kerkhoff"
      },
      "derivedFrom": [ {
        "extension": [ {
          "url": "http://nictiz.nl/fhir/StructureDefinition/ext-ResourceCategory",
          "valueCodeableConcept": {
            "coding": [ {
              "system": "http://snomed.info/sct",
              "code": "33633005",
              "display": "voorschrijven van geneesmiddel"
            } ]
          }
        } ],
        "type": "MedicationRequest",
        "identifier": {
          "system": "urn:oid:2.16.840.1.113883.2.4.3.11.999.77.16076005.1",
          "value": "MBH_300_script3_MA"
        },
        "display": "relatie naar medicatieafspraak"
      } ],
      "dosage": [ {
        "additionalInstruction": [ {
          "coding": [ {
            "system": "http://terminology.hl7.org/CodeSystem/v3-NullFlavor",
            "code": "OTH",
            "display": "overig"
          } ],
          "text": "1-2 doses onder de tong, na 5-10 min herhalen, max. 3 opeenvolgende doses. Bij onvoldoende effect na in totaal 3 doses direct contact opnemen met een arts."
        } ],
        "asNeededCodeableConcept": {
          "coding": [ {
            "system": "https://referentiemodel.nhg.org/tabellen/nhg-tabel-25-gebruiksvoorschrift#aanvullend-numeriek",
            "code": "1028",
            "display": "Bij pijn"
          } ]
        },
        "route": {
          "coding": [ {
            "system": "urn:oid:2.16.840.1.113883.2.4.4.9",
            "code": "34",
            "display": "oromucosaal"
          } ]
        },
        "doseAndRate": [ {
          "doseQuantity": {
            "extension": [ {
              "url": "http://hl7.org/fhir/StructureDefinition/iso21090-PQ-translation",
              "valueQuantity": {
                "value": 2,
                "unit": "dosis",
                "system": "urn:oid:2.16.840.1.113883.2.4.4.1.900.2",
                "code": "208"
              }
            } ],
            "value": 2,
            "unit": "dosis",
            "system": "http://unitsofmeasure.org",
            "code": "1"
          }
        } ],
        "maxDosePerPeriod": {
          "numerator": {
            "extension": [ {
              "url": "http://hl7.org/fhir/StructureDefinition/iso21090-PQ-translation",
              "valueQuantity": {
                "value": 3,
                "unit": "dosis",
                "system": "urn:oid:2.16.840.1.113883.2.4.4.1.900.2",
                "code": "208"
              }
            } ],
            "value": 3,
            "unit": "dosis",
            "system": "http://unitsofmeasure.org",
            "code": "1"
          },
          "denominator": {
            "value": 1,
            "unit": "dag",
            "system": "http://unitsofmeasure.org",
            "code": "d"
          }
        }
      } ]
    },
    "request": {
      "method": "POST",
      "url": "MedicationStatement"
    }
  }, {
    "fullUrl": "urn:uuid:22f07e1e-6b17-11ec-0000-020000000000",
    "resource": {
      "resourceType": "Patient",
      "meta": {
        "profile": [ "http://nictiz.nl/fhir/StructureDefinition/nl-core-Patient" ]
      },
      "text": {
        "status": "extensions",
        "div": "<div xmlns=\"http://www.w3.org/1999/xhtml\">\n            <div>Id 999900687 (BSN), <span title=\"Naamsamenstelling: Eigennaam\">H. XXX_Kerkhoff</span>, Man, 9 november 1963</div>\n          </div>"
      },
      "identifier": [ {
        "system": "http://fhir.nl/fhir/NamingSystem/bsn",
        "value": "999900687"
      } ],
      "name": [ {
        "extension": [ {
          "url": "http://hl7.org/fhir/StructureDefinition/humanname-assembly-order",
          "valueCode": "NL1"
        } ],
        "use": "official",
        "text": "H. XXX_Kerkhoff",
        "family": "XXX_Kerkhoff",
        "_family": {
          "extension": [ {
            "url": "http://hl7.org/fhir/StructureDefinition/humanname-own-name",
            "valueString": "XXX_Kerkhoff"
          } ]
        },
        "given": [ "H." ],
        "_given": [ {
          "extension": [ {
            "url": "http://hl7.org/fhir/StructureDefinition/iso21090-EN-qualifier",
            "valueCode": "IN"
          } ]
        } ]
      } ],
      "gender": "male",
      "_gender": {
        "extension": [ {
          "url": "http://nictiz.nl/fhir/StructureDefinition/ext-CodeSpecification",
          "valueCodeableConcept": {
            "coding": [ {
              "system": "http://terminology.hl7.org/CodeSystem/v3-AdministrativeGender",
              "code": "M",
              "display": "Man"
            } ]
          }
        } ]
      },
      "birthDate": "1963-11-09"
    },
    "request": {
      "method": "POST",
      "url": "Patient"
    }
  }, {
    "fullUrl": "urn:uuid:4560482e-6aec-11ec-0000-020000000000",
    "resource": {
      "resourceType": "PractitionerRole",
      "meta": {
        "profile": [ "http://nictiz.nl/fhir/StructureDefinition/nl-core-HealthProfessional-PractitionerRole" ]
      },
      "text": {
        "status": "extensions",
        "div": "<div xmlns=\"http://www.w3.org/1999/xhtml\">\n            <table>\n              <caption>Zorgverlenerrol. </caption>\n              <tbody>\n                <tr>\n                  <th>Zorgverlener</th>\n                  <td>\n                    <div>Healthcare professional (person), Bertine van Doorn</div>\n                    <div>Healthcare provider (organization), Huisartsenpraktijk Pulver &amp; Partners</div>\n                  </td>\n                </tr>\n                <tr>\n                  <th>Specialisme</th>\n                  <td>\n                    <span title=\"Huisartsen, niet nader gespecificeerd (0100 - AGB-medisch specialisme)\">Huisartsen, niet nader gespecificeerd</span>\n                  </td>\n                </tr>\n              </tbody>\n            </table>\n          </div>"
      },
      "practitioner": {
        "reference": "urn:uuid:a57e4824-6aa3-11ec-0000-020000000000",
        "type": "Practitioner",
        "display": "Healthcare professional (person), Bertine van Doorn"
      },
      "organization": {
        "reference": "urn:uuid:7fa869d8-6b44-11ec-0000-020000000000",
        "type": "Organization",
        "display": "Healthcare provider (organization), Huisartsenpraktijk Pulver & Partners"
      },
      "specialty": [ {
        "coding": [ {
          "system": "urn:oid:2.16.840.1.113883.2.4.6.7",
          "version": "2020-10-23T00:00:00",
          "code": "0100",
          "display": "Huisartsen, niet nader gespecificeerd"
        } ]
      } ]
    },
    "request": {
      "method": "POST",
      "url": "PractitionerRole"
    }
  }, {
    "fullUrl": "urn:uuid:a57e4824-6aa3-11ec-0000-020000000000",
    "resource": {
      "resourceType": "Practitioner",
      "meta": {
        "profile": [ "http://nictiz.nl/fhir/StructureDefinition/nl-core-HealthProfessional-Practitioner" ]
      },
      "text": {
        "status": "extensions",
        "div": "<div xmlns=\"http://www.w3.org/1999/xhtml\">\n            <div>Id 000001112 (UZI-NR-PERS), Bertine van Doorn</div>\n          </div>"
      },
      "identifier": [ {
        "system": "http://fhir.nl/fhir/NamingSystem/uzi-nr-pers",
        "value": "000001112"
      } ],
      "name": [ {
        "use": "official",
        "text": "Bertine van Doorn",
        "family": "van Doorn",
        "_family": {
          "extension": [ {
            "url": "http://hl7.org/fhir/StructureDefinition/humanname-own-prefix",
            "valueString": "van"
          }, {
            "url": "http://hl7.org/fhir/StructureDefinition/humanname-own-name",
            "valueString": "Doorn"
          } ]
        },
        "given": [ "Bertine" ],
        "_given": [ {
          "extension": [ {
            "url": "http://hl7.org/fhir/StructureDefinition/iso21090-EN-qualifier",
            "valueCode": "BR"
          } ]
        } ]
      } ]
    },
    "request": {
      "method": "POST",
      "url": "Practitioner"
    }
  }, {
    "fullUrl": "urn:uuid:7fa869d8-6b44-11ec-0000-020000000000",
    "resource": {
      "resourceType": "Organization",
      "meta": {
        "profile": [ "http://nictiz.nl/fhir/StructureDefinition/nl-core-HealthcareProvider-Organization" ]
      },
      "text": {
        "status": "extensions",
        "div": "<div xmlns=\"http://www.w3.org/1999/xhtml\">\n            <table>\n              <caption>Organisatie. Id: 00001111 (URA)</caption>\n              <tbody>\n                <tr>\n                  <th>Naam</th>\n                  <td>Huisartsenpraktijk Pulver &amp; Partners</td>\n                </tr>\n                <tr>\n                  <th>Adres</th>\n                  <td>Dorpsstraat 1, 1234AA Ons Dorp (Werk)</td>\n                </tr>\n              </tbody>\n            </table>\n          </div>"
      },
      "identifier": [ {
        "system": "http://fhir.nl/fhir/NamingSystem/ura",
        "value": "00001111"
      } ],
      "name": "Huisartsenpraktijk Pulver & Partners",
      "address": [ {
        "extension": [ {
          "url": "http://nictiz.nl/fhir/StructureDefinition/ext-AddressInformation.AddressType",
          "valueCodeableConcept": {
            "coding": [ {
              "system": "http://terminology.hl7.org/CodeSystem/v3-AddressUse",
              "code": "WP",
              "display": "Werkadres"
            } ]
          }
        } ],
        "use": "work",
        "line": [ "Dorpsstraat 1" ],
        "_line": [ {
          "extension": [ {
            "url": "http://hl7.org/fhir/StructureDefinition/iso21090-ADXP-streetName",
            "valueString": "Dorpsstraat"
          }, {
            "url": "http://hl7.org/fhir/StructureDefinition/iso21090-ADXP-houseNumber",
            "valueString": "1"
          } ]
        } ],
        "city": "Ons Dorp",
        "postalCode": "1234AA"
      } ]
    },
    "request": {
      "method": "POST",
      "url": "Organization"
    }
  }, {
    "fullUrl": "urn:uuid:0e7b40e9-6aec-11ec-0000-020000000000",
    "resource": {
      "resourceType": "Medication",
      "meta": {
        "profile": [ "http://nictiz.nl/fhir/StructureDefinition/mp-PharmaceuticalProduct" ]
      },
      "text": {
        "status": "extensions",
        "div": "<div xmlns=\"http://www.w3.org/1999/xhtml\">\n            <table>\n              <tbody>\n                <tr>\n                  <th>Code</th>\n                  <td>\n                    <span title=\"NITROLINGUAL OROMUCOSALE SPRAY 0,4MG/DO FLAC 250DO (704369 - G-Standaard HPK)\">NITROLINGUAL OROMUCOSALE SPRAY 0,4MG/DO FLAC 250DO</span>\n                  </td>\n                </tr>\n              </tbody>\n            </table>\n          </div>"
      },
      "code": {
        "coding": [ {
          "system": "urn:oid:2.16.840.1.113883.2.4.4.7",
          "code": "704369",
          "display": "NITROLINGUAL OROMUCOSALE SPRAY 0,4MG/DO FLAC 250DO",
          "userSelected": true
        }, {
          "system": "urn:oid:2.16.840.1.113883.2.4.4.10",
          "code": "72214",
          "display": "NITROGLYCERINE SPRAY SUBLING. 0,4MG/DO FL 250DO"
        }, {
          "system": "urn:oid:2.16.840.1.113883.2.4.4.1",
          "code": "119431",
          "display": "NITROGLYCERINE SPRAY SUBLING. 0,4MG/DO"
        } ],
        "text": "NITROLINGUAL OROMUCOSALE SPRAY 0,4MG/DO FLAC 250DO"
      }
    },
    "request": {
      "method": "POST",
      "url": "Medication"
    }
  } ]
}