{
  "resourceType": "Bundle",
  "id": "mv-mp-vo-kwal-script4b-v30",
  "meta": {
    "profile": [ "http://nictiz.nl/fhir/StructureDefinition/mp-MedicationPrescription-Bundle" ]
  },
  "type": "transaction",
  "entry": [ {
    "fullUrl": "urn:uuid:7f8fca5d-6b3f-11ec-0000-020000000000",
    "resource": {
      "resourceType": "MedicationRequest",
      "meta": {
        "profile": [ "http://nictiz.nl/fhir/StructureDefinition/mp-MedicationAgreement" ],
        "tag": [ {
          "system": "http://terminology.hl7.org/CodeSystem/common-tags",
          "code": "actionable"
        } ]
      },
      "text": {
        "status": "extensions",
        "div": "<div xmlns=\"http://www.w3.org/1999/xhtml\">\n            <table>\n              <caption>MedicationRequest. Subject: Patient, H. XXX_Smit. Id: MBH_300_script4_MA (urn:oid:2.16.840.1.113883.2.4.3.11.999.77.16076005.1), Categorie: <span title=\"voorschrijven van geneesmiddel (33633005 - SNOMED CT)\">voorschrijven van geneesmiddel</span>, Status: actief<span style=\"display: block;\">Intentie: aanvraag</span>\n                <span style=\"display: block;\">Aangevraagd door: Healthcare professional (role), Peter van Pulver, Huisartsen, niet nader gespecificeerd, Huisartsenpraktijk Pulver &amp; Partners</span>\n              </caption>\n              <tbody>\n                <tr>\n                  <th>Medicatie</th>\n                  <td>DICLOFENAC-NATRIUM TABLET MSR 25MG</td>\n                </tr>\n                <tr>\n                  <th>Doseerinstructie</th>\n                  <td>\n                    <div>Volgnummer: 1</div>\n                    <div>Instructie: <span title=\"overig (OTH - http://terminology.hl7.org/CodeSystem/v3-NullFlavor)\">overig</span>\n                    </div>\n                    <div>Timing: <div>3 dag, 2 maal per dag</div>\n                    </div>\n                    <div>Toedieningsweg: <span title=\"oraal (9 - G-Standaard thesaurus subtabel 0007)\">oraal</span>\n                    </div>\n                    <div>Dosering: doseAndRate TODO</div>\n                  </td>\n                </tr>\n                <tr>\n                  <th>Doseerinstructie</th>\n                  <td>\n                    <div>Volgnummer: 1</div>\n                    <div>Instructie: <span title=\"overig (OTH - http://terminology.hl7.org/CodeSystem/v3-NullFlavor)\">overig</span>\n                    </div>\n                    <div>Timing: <div>3 dag, eenmalig per dag</div>\n                    </div>\n                    <div>Zo nodig: <span title=\"Bij pijn (1028 - nhg-tabel-25-gebruiksvoorschrift#aanvullend-numeriek)\">Bij pijn</span>\n                    </div>\n                    <div>Toedieningsweg: <span title=\"oraal (9 - G-Standaard thesaurus subtabel 0007)\">oraal</span>\n                    </div>\n                    <div>Dosering: doseAndRate TODO</div>\n                    <div>Max dosering: 6 Stuk / 1 dag (per period)</div>\n                  </td>\n                </tr>\n                <tr>\n                  <th>Doseerinstructie</th>\n                  <td>\n                    <div>Volgnummer: 2</div>\n                    <div>Instructie: <span title=\"overig (OTH - http://terminology.hl7.org/CodeSystem/v3-NullFlavor)\">overig</span>\n                    </div>\n                    <div>Timing: <div>7 dag, 3 maal per dag</div>\n                    </div>\n                    <div>Toedieningsweg: <span title=\"oraal (9 - G-Standaard thesaurus subtabel 0007)\">oraal</span>\n                    </div>\n                    <div>Dosering: doseAndRate TODO</div>\n                  </td>\n                </tr>\n                <tr>\n                  <th>Doseerinstructie</th>\n                  <td>\n                    <div>Volgnummer: 2</div>\n                    <div>Instructie: <span title=\"overig (OTH - http://terminology.hl7.org/CodeSystem/v3-NullFlavor)\">overig</span>\n                    </div>\n                    <div>Timing: <div>7 dag, eenmalig per dag</div>\n                    </div>\n                    <div>Zo nodig: <span title=\"Bij pijn (1028 - nhg-tabel-25-gebruiksvoorschrift#aanvullend-numeriek)\">Bij pijn</span>\n                    </div>\n                    <div>Toedieningsweg: <span title=\"oraal (9 - G-Standaard thesaurus subtabel 0007)\">oraal</span>\n                    </div>\n                    <div>Dosering: doseAndRate TODO</div>\n                    <div>Max dosering: 4 Stuk / 1 dag (per period)</div>\n                  </td>\n                </tr>\n              </tbody>\n            </table>\n          </div>"
      },
      "extension": [ {
        "url": "http://nictiz.nl/fhir/StructureDefinition/ext-RegistrationDateTime",
        "valueDateTime": "${DATE, T, D, -6}T11:30:00+02:00"
      }, {
        "url": "http://nictiz.nl/fhir/StructureDefinition/ext-RenderedDosageInstruction",
        "valueString": "wordt automatisch gevuld"
      }, {
        "url": "http://nictiz.nl/fhir/StructureDefinition/ext-TimeInterval.Period",
        "valuePeriod": {
          "extension": [ {
            "url": "http://nictiz.nl/fhir/StructureDefinition/ext-TimeInterval.Duration",
            "valueDuration": {
              "value": 10,
              "unit": "dag",
              "system": "http://unitsofmeasure.org",
              "code": "d"
            }
          } ],
          "start": "${DATE, T, D, -6}T11:30:00+02:00"
        }
      }, {
        "url": "http://nictiz.nl/fhir/StructureDefinition/ext-PharmaceuticalTreatment.Identifier",
        "valueIdentifier": {
          "system": "urn:oid:2.16.840.1.113883.2.4.3.11.999.77.1.1",
          "value": "MBH_300_script4"
        }
      } ],
      "identifier": [ {
        "system": "urn:oid:2.16.840.1.113883.2.4.3.11.999.77.16076005.1",
        "value": "MBH_300_script4_MA"
      } ],
      "status": "active",
      "intent": "order",
      "category": [ {
        "coding": [ {
          "system": "http://snomed.info/sct",
          "code": "33633005",
          "display": "voorschrijven van geneesmiddel"
        } ]
      } ],
      "medicationReference": {
        "reference": "urn:uuid:0fb46ee9-6b51-11ec-0000-020000000000",
        "type": "Medication",
        "display": "DICLOFENAC-NATRIUM TABLET MSR 25MG"
      },
      "subject": {
        "reference": "urn:uuid:ab1a105e-6b79-11ec-0000-020000000000",
        "type": "Patient",
        "display": "Patient, H. XXX_Smit"
      },
      "requester": {
        "reference": "urn:uuid:7af79824-6ac8-11ec-0000-020000000000",
        "type": "PractitionerRole",
        "display": "Healthcare professional (role), Peter van Pulver, Huisartsen, niet nader gespecificeerd, Huisartsenpraktijk Pulver & Partners"
      },
      "dosageInstruction": [ {
        "sequence": 1,
        "additionalInstruction": [ {
          "coding": [ {
            "system": "http://terminology.hl7.org/CodeSystem/v3-NullFlavor",
            "code": "OTH",
            "display": "overig"
          } ],
          "text": "v贸贸r het eten"
        } ],
        "timing": {
          "repeat": {
            "boundsDuration": {
              "value": 3,
              "unit": "dag",
              "system": "http://unitsofmeasure.org",
              "code": "d"
            },
            "frequency": 2,
            "period": 1,
            "periodUnit": "d"
          }
        },
        "route": {
          "coding": [ {
            "system": "urn:oid:2.16.840.1.113883.2.4.4.9",
            "code": "9",
            "display": "oraal"
          } ]
        },
        "doseAndRate": [ {
          "doseQuantity": {
            "extension": [ {
              "url": "http://hl7.org/fhir/StructureDefinition/iso21090-PQ-translation",
              "valueQuantity": {
                "value": 2,
                "unit": "stuk",
                "system": "urn:oid:2.16.840.1.113883.2.4.4.1.900.2",
                "code": "245"
              }
            } ],
            "value": 2,
            "unit": "stuk",
            "system": "http://unitsofmeasure.org",
            "code": "1"
          }
        } ]
      }, {
        "sequence": 1,
        "additionalInstruction": [ {
          "coding": [ {
            "system": "http://terminology.hl7.org/CodeSystem/v3-NullFlavor",
            "code": "OTH",
            "display": "overig"
          } ],
          "text": "v贸贸r het eten"
        } ],
        "timing": {
          "repeat": {
            "boundsDuration": {
              "value": 3,
              "unit": "dag",
              "system": "http://unitsofmeasure.org",
              "code": "d"
            },
            "frequency": 1,
            "period": 1,
            "periodUnit": "d"
          }
        },
        "asNeededCodeableConcept": {
          "coding": [ {
            "system": "https://referentiemodel.nhg.org/tabellen/nhg-tabel-25-gebruiksvoorschrift#aanvullend-numeriek",
            "code": "1028",
            "display": "Bij pijn"
          } ]
        },
        "route": {
          "coding": [ {
            "system": "urn:oid:2.16.840.1.113883.2.4.4.9",
            "code": "9",
            "display": "oraal"
          } ]
        },
        "doseAndRate": [ {
          "doseQuantity": {
            "extension": [ {
              "url": "http://hl7.org/fhir/StructureDefinition/iso21090-PQ-translation",
              "valueQuantity": {
                "value": 2,
                "unit": "Stuks",
                "system": "urn:oid:2.16.840.1.113883.2.4.4.1.900.2",
                "code": "245"
              }
            } ],
            "value": 2,
            "unit": "Stuks",
            "system": "http://unitsofmeasure.org",
            "code": "1"
          }
        } ],
        "maxDosePerPeriod": {
          "numerator": {
            "extension": [ {
              "url": "http://hl7.org/fhir/StructureDefinition/iso21090-PQ-translation",
              "valueQuantity": {
                "value": 6,
                "unit": "Stuk",
                "system": "urn:oid:2.16.840.1.113883.2.4.4.1.900.2",
                "code": "245"
              }
            } ],
            "value": 6,
            "unit": "Stuk",
            "system": "http://unitsofmeasure.org",
            "code": "1"
          },
          "denominator": {
            "value": 1,
            "unit": "dag",
            "system": "http://unitsofmeasure.org",
            "code": "d"
          }
        }
      }, {
        "sequence": 2,
        "additionalInstruction": [ {
          "coding": [ {
            "system": "http://terminology.hl7.org/CodeSystem/v3-NullFlavor",
            "code": "OTH",
            "display": "overig"
          } ],
          "text": "v贸贸r het eten"
        } ],
        "timing": {
          "repeat": {
            "boundsDuration": {
              "value": 7,
              "unit": "dag",
              "system": "http://unitsofmeasure.org",
              "code": "d"
            },
            "frequency": 3,
            "period": 1,
            "periodUnit": "d"
          }
        },
        "route": {
          "coding": [ {
            "system": "urn:oid:2.16.840.1.113883.2.4.4.9",
            "code": "9",
            "display": "oraal"
          } ]
        },
        "doseAndRate": [ {
          "doseQuantity": {
            "extension": [ {
              "url": "http://hl7.org/fhir/StructureDefinition/iso21090-PQ-translation",
              "valueQuantity": {
                "value": 1,
                "unit": "Stuk",
                "system": "urn:oid:2.16.840.1.113883.2.4.4.1.900.2",
                "code": "245"
              }
            } ],
            "value": 1,
            "unit": "Stuk",
            "system": "http://unitsofmeasure.org",
            "code": "1"
          }
        } ]
      }, {
        "sequence": 2,
        "additionalInstruction": [ {
          "coding": [ {
            "system": "http://terminology.hl7.org/CodeSystem/v3-NullFlavor",
            "code": "OTH",
            "display": "overig"
          } ],
          "text": "v贸贸r het eten"
        } ],
        "timing": {
          "repeat": {
            "boundsDuration": {
              "value": 7,
              "unit": "dag",
              "system": "http://unitsofmeasure.org",
              "code": "d"
            },
            "frequency": 1,
            "period": 1,
            "periodUnit": "d"
          }
        },
        "asNeededCodeableConcept": {
          "coding": [ {
            "system": "https://referentiemodel.nhg.org/tabellen/nhg-tabel-25-gebruiksvoorschrift#aanvullend-numeriek",
            "code": "1028",
            "display": "Bij pijn"
          } ]
        },
        "route": {
          "coding": [ {
            "system": "urn:oid:2.16.840.1.113883.2.4.4.9",
            "code": "9",
            "display": "oraal"
          } ]
        },
        "doseAndRate": [ {
          "doseQuantity": {
            "extension": [ {
              "url": "http://hl7.org/fhir/StructureDefinition/iso21090-PQ-translation",
              "valueQuantity": {
                "value": 1,
                "unit": "Stuks",
                "system": "urn:oid:2.16.840.1.113883.2.4.4.1.900.2",
                "code": "245"
              }
            } ],
            "value": 1,
            "unit": "Stuks",
            "system": "http://unitsofmeasure.org",
            "code": "1"
          }
        } ],
        "maxDosePerPeriod": {
          "numerator": {
            "extension": [ {
              "url": "http://hl7.org/fhir/StructureDefinition/iso21090-PQ-translation",
              "valueQuantity": {
                "value": 4,
                "unit": "Stuk",
                "system": "urn:oid:2.16.840.1.113883.2.4.4.1.900.2",
                "code": "245"
              }
            } ],
            "value": 4,
            "unit": "Stuk",
            "system": "http://unitsofmeasure.org",
            "code": "1"
          },
          "denominator": {
            "value": 1,
            "unit": "dag",
            "system": "http://unitsofmeasure.org",
            "code": "d"
          }
        }
      } ]
    },
    "request": {
      "method": "POST",
      "url": "MedicationRequest"
    }
  }, {
    "fullUrl": "urn:uuid:2695ba7d-6b17-11ec-0000-020000000000",
    "resource": {
      "resourceType": "MedicationRequest",
      "meta": {
        "profile": [ "http://nictiz.nl/fhir/StructureDefinition/mp-DispenseRequest" ],
        "tag": [ {
          "system": "http://terminology.hl7.org/CodeSystem/common-tags",
          "code": "actionable"
        } ]
      },
      "text": {
        "status": "extensions",
        "div": "<div xmlns=\"http://www.w3.org/1999/xhtml\">\n            <table>\n              <caption>MedicationRequest. Subject: Patient, H. XXX_Smit. Id: MBH_300_script4_VV (urn:oid:2.16.840.1.113883.2.4.3.11.999.77.52711000146108.1), Categorie: <span title=\"verstrekkingsverzoek (52711000146108 - SNOMED CT)\">verstrekkingsverzoek</span>, Status: actief<span style=\"display: block;\">Intentie: aanvraag</span>\n                <span style=\"display: block;\">Aangevraagd door: Healthcare professional (role), Peter van Pulver, Huisartsen, niet nader gespecificeerd, Huisartsenpraktijk Pulver &amp; Partners</span>\n              </caption>\n              <tbody>\n                <tr>\n                  <th>Gebaseerd op</th>\n                  <td>relatie naar medicatieafspraak  met identificatie: MBH_300_script4_MA || 2.16.840.1.113883.2.4.3.11.999.77.16076005.1 (Id: MBH_300_script4_MA (urn:oid:2.16.840.1.113883.2.4.3.11.999.77.16076005.1))</td>\n                </tr>\n                <tr>\n                  <th>Medicatie</th>\n                  <td>DICLOFENAC-NATRIUM TABLET MSR 25MG</td>\n                </tr>\n                <tr>\n                  <th>Gemaakt</th>\n                  <td>${DATE, T, D, -6}T11:30:00+02:00</td>\n                </tr>\n                <tr>\n                  <th>Toedieningsverzoek</th>\n                  <td>\n                    <div>Hoeveelheid: </div>\n                  </td>\n                </tr>\n              </tbody>\n            </table>\n          </div>"
      },
      "extension": [ {
        "url": "http://nictiz.nl/fhir/StructureDefinition/ext-PharmaceuticalTreatment.Identifier",
        "valueIdentifier": {
          "system": "urn:oid:2.16.840.1.113883.2.4.3.11.999.77.1.1",
          "value": "MBH_300_script4"
        }
      } ],
      "identifier": [ {
        "system": "urn:oid:2.16.840.1.113883.2.4.3.11.999.77.52711000146108.1",
        "value": "MBH_300_script4_VV"
      } ],
      "status": "active",
      "intent": "order",
      "category": [ {
        "coding": [ {
          "system": "http://snomed.info/sct",
          "code": "52711000146108",
          "display": "verstrekkingsverzoek"
        } ]
      } ],
      "medicationReference": {
        "reference": "urn:uuid:0fb46ee9-6b51-11ec-0000-020000000000",
        "type": "Medication",
        "display": "DICLOFENAC-NATRIUM TABLET MSR 25MG"
      },
      "subject": {
        "reference": "urn:uuid:ab1a105e-6b79-11ec-0000-020000000000",
        "type": "Patient",
        "display": "Patient, H. XXX_Smit"
      },
      "authoredOn": "${DATE, T, D, -6}T11:30:00+02:00",
      "requester": {
        "reference": "urn:uuid:7af79824-6ac8-11ec-0000-020000000000",
        "type": "PractitionerRole",
        "display": "Healthcare professional (role), Peter van Pulver, Huisartsen, niet nader gespecificeerd, Huisartsenpraktijk Pulver & Partners"
      },
      "performer": {
        "reference": "urn:uuid:10079464-6b64-11ec-0000-020000000000",
        "type": "Organization",
        "display": "Healthcare provider (organization), Apotheek De Gulle Gaper"
      },
      "basedOn": [ {
        "type": "MedicationRequest",
        "identifier": {
          "system": "urn:oid:2.16.840.1.113883.2.4.3.11.999.77.16076005.1",
          "value": "MBH_300_script4_MA"
        },
        "display": "relatie naar medicatieafspraak  met identificatie: MBH_300_script4_MA || 2.16.840.1.113883.2.4.3.11.999.77.16076005.1"
      } ],
      "dispenseRequest": {
        "quantity": {
          "extension": [ {
            "url": "http://hl7.org/fhir/StructureDefinition/iso21090-PQ-translation",
            "valueQuantity": {
              "value": 56,
              "unit": "stuk",
              "system": "urn:oid:2.16.840.1.113883.2.4.4.1.900.2",
              "code": "245"
            }
          } ],
          "value": 56,
          "unit": "stuk",
          "system": "http://unitsofmeasure.org",
          "code": "1"
        }
      }
    },
    "request": {
      "method": "POST",
      "url": "MedicationRequest"
    }
  }, {
    "fullUrl": "urn:uuid:ff6602e0-8d1f-11ef-1518-020000000000",
    "resource": {
      "resourceType": "Observation",
      "meta": {
        "profile": [ "http://nictiz.nl/fhir/StructureDefinition/nl-core-LaboratoryTestResult" ]
      },
      "text": {
        "status": "extensions",
        "div": "<div xmlns=\"http://www.w3.org/1999/xhtml\">\n            <table>\n              <caption>Observatie/bepaling. Subject: Patient, H. XXX_Smit. Id: 2698 (urn:oid:2.16.840.1.113883.2.4.3.11.999.25.4298.2), Categorie: <span title=\"Laboratory (laboratory - http://terminology.hl7.org/CodeSystem/observation-category)\">Laboratory</span>, Status: definitief<span style=\"display: block;\">Uitvoerende: Healthcare provider (organization), Klinisch chemisch Lab 't Proefje</span>\n              </caption>\n              <tbody>\n                <tr>\n                  <th>Bepalingdatum/tijd</th>\n                  <td colspan=\"3\">${DATE, T, D, -30}</td>\n                </tr>\n                <tr>\n                  <th>Specimen</th>\n                  <td colspan=\"3\">monster</td>\n                </tr>\n                <tr>\n                  <th>Code</th>\n                  <th>Waarde</th>\n                  <th>Interpretatie</th>\n                  <th>Referentiewaarden</th>\n                </tr>\n                <tr>\n                  <td>\n                    <span title=\"eGFR volgens CKD-EPI formule (3583 - nhg-tabel-45-diagnostische-bepalingen)\">eGFR volgens CKD-EPI formule</span>\n                  </td>\n                  <td>25 mL/min/{1.73_m2}</td>\n                  <td>Waarde is te laag. Stadium 4 nierfalen, ernstige nierfunctiestoornis.</td>\n                  <td>\n                    <div>60 mL/min/{1.73_m2} - </div>\n                  </td>\n                </tr>\n              </tbody>\n            </table>\n          </div>"
      },
      "extension": [ {
        "url": "http://nictiz.nl/fhir/StructureDefinition/ext-CopyIndicator",
        "valueBoolean": true
      }, {
        "url": "http://nictiz.nl/fhir/StructureDefinition/ext-EdifactReferenceNumber",
        "valueString": "888222"
      } ],
      "identifier": [ {
        "system": "urn:oid:2.16.840.1.113883.2.4.3.11.999.25.4298.2",
        "value": "2698"
      } ],
      "status": "final",
      "category": [ {
        "coding": [ {
          "system": "http://terminology.hl7.org/CodeSystem/observation-category",
          "code": "laboratory",
          "display": "Laboratory"
        } ]
      } ],
      "code": {
        "coding": [ {
          "system": "https://referentiemodel.nhg.org/tabellen/nhg-tabel-45-diagnostische-bepalingen",
          "code": "3583",
          "display": "eGFR volgens CKD-EPI formule"
        } ]
      },
      "subject": {
        "reference": "urn:uuid:ab1a105e-6b79-11ec-0000-020000000000",
        "type": "Patient",
        "display": "Patient, H. XXX_Smit"
      },
      "effectiveDateTime": "${DATE, T, D, -30}",
      "performer": [ {
        "reference": "urn:uuid:ff66025e-8d1f-11ef-1518-020000000000",
        "type": "Organization",
        "display": "Healthcare provider (organization), Klinisch chemisch Lab 't Proefje"
      } ],
      "valueQuantity": {
        "value": 25,
        "unit": "mL/min/{1.73_m2}",
        "system": "http://unitsofmeasure.org",
        "code": "mL/min/{1.73_m2}"
      },
      "interpretation": [ {
        "text": "Waarde is te laag. Stadium 4 nierfalen, ernstige nierfunctiestoornis."
      } ],
      "specimen": {
        "reference": "urn:uuid:ff66031c-8d1f-11ef-1518-020000000000",
        "type": "Specimen",
        "display": "monster"
      },
      "referenceRange": [ {
        "low": {
          "value": 60,
          "unit": "mL/min/{1.73_m2}",
          "system": "http://unitsofmeasure.org",
          "code": "mL/min/{1.73_m2}"
        }
      } ]
    },
    "request": {
      "method": "POST",
      "url": "Observation"
    }
  }, {
    "fullUrl": "urn:uuid:ff66031c-8d1f-11ef-1518-020000000000",
    "resource": {
      "resourceType": "Specimen",
      "meta": {
        "profile": [ "http://nictiz.nl/fhir/StructureDefinition/nl-core-LaboratoryTestResult.Specimen" ]
      },
      "text": {
        "status": "extensions",
        "div": "<div xmlns=\"http://www.w3.org/1999/xhtml\">\n            <table>\n              <caption>Specimen. Subject: bron_monster. Id: 15 (urn:oid:2.16.840.1.113883.2.4.3.11.999.25.4267.2)</caption>\n              <tfoot>\n                <tr>\n                  <td colspan=\"2\">Urine ingeleverd door pati毛nt.</td>\n                </tr>\n              </tfoot>\n              <tbody>\n                <tr>\n                  <th>Type</th>\n                  <td>\n                    <span title=\"Urine (122575003 - SNOMED CT)\">Urine</span>\n                  </td>\n                </tr>\n                <tr>\n                  <th>Received</th>\n                  <td>${DATE, T, D, -31}</td>\n                </tr>\n              </tbody>\n            </table>\n          </div>"
      },
      "identifier": [ {
        "system": "urn:oid:2.16.840.1.113883.2.4.3.11.999.25.4267.2",
        "value": "15"
      } ],
      "type": {
        "coding": [ {
          "system": "http://snomed.info/sct",
          "code": "122575003",
          "display": "Urine"
        } ]
      },
      "subject": {
        "reference": "urn:uuid:ff66033a-8d1f-11ef-1518-020000000000",
        "type": "Device",
        "display": "bron_monster"
      },
      "receivedTime": "${DATE, T, D, -31}",
      "note": [ {
        "text": "Urine ingeleverd door pati毛nt."
      } ]
    },
    "request": {
      "method": "POST",
      "url": "Specimen"
    }
  }, {
    "fullUrl": "urn:uuid:ab1a105e-6b79-11ec-0000-020000000000",
    "resource": {
      "resourceType": "Patient",
      "meta": {
        "profile": [ "http://nictiz.nl/fhir/StructureDefinition/nl-core-Patient" ]
      },
      "text": {
        "status": "extensions",
        "div": "<div xmlns=\"http://www.w3.org/1999/xhtml\">\n            <div>Id 999910966 (BSN), <span title=\"Naamsamenstelling: Eigennaam\">H. XXX_Smit</span>, Man, 24 augustus 1954</div>\n          </div>"
      },
      "identifier": [ {
        "system": "http://fhir.nl/fhir/NamingSystem/bsn",
        "value": "999910966"
      } ],
      "name": [ {
        "extension": [ {
          "url": "http://hl7.org/fhir/StructureDefinition/humanname-assembly-order",
          "valueCode": "NL1"
        } ],
        "use": "official",
        "text": "H. XXX_Smit",
        "family": "XXX_Smit",
        "_family": {
          "extension": [ {
            "url": "http://hl7.org/fhir/StructureDefinition/humanname-own-name",
            "valueString": "XXX_Smit"
          } ]
        },
        "given": [ "H." ],
        "_given": [ {
          "extension": [ {
            "url": "http://hl7.org/fhir/StructureDefinition/iso21090-EN-qualifier",
            "valueCode": "IN"
          } ]
        } ]
      } ],
      "gender": "male",
      "_gender": {
        "extension": [ {
          "url": "http://nictiz.nl/fhir/StructureDefinition/ext-CodeSpecification",
          "valueCodeableConcept": {
            "coding": [ {
              "system": "http://terminology.hl7.org/CodeSystem/v3-AdministrativeGender",
              "code": "M",
              "display": "Man"
            } ]
          }
        } ]
      },
      "birthDate": "1954-08-24"
    },
    "request": {
      "method": "POST",
      "url": "Patient"
    }
  }, {
    "fullUrl": "urn:uuid:7af79824-6ac8-11ec-0000-020000000000",
    "resource": {
      "resourceType": "PractitionerRole",
      "meta": {
        "profile": [ "http://nictiz.nl/fhir/StructureDefinition/nl-core-HealthProfessional-PractitionerRole" ]
      },
      "text": {
        "status": "extensions",
        "div": "<div xmlns=\"http://www.w3.org/1999/xhtml\">\n            <table>\n              <caption>Zorgverlenerrol. </caption>\n              <tbody>\n                <tr>\n                  <th>Zorgverlener</th>\n                  <td>\n                    <div>Healthcare professional (person), Peter van Pulver</div>\n                    <div>Healthcare provider (organization), Huisartsenpraktijk Pulver &amp; Partners</div>\n                  </td>\n                </tr>\n                <tr>\n                  <th>Specialisme</th>\n                  <td>\n                    <span title=\"Huisartsen, niet nader gespecificeerd (0100 - AGB-medisch specialisme)\">Huisartsen, niet nader gespecificeerd</span>\n                  </td>\n                </tr>\n                <tr>\n                  <th>Contactgegevens</th>\n                  <td>\n                    <a href=\"tel:1645645000\">1645645000</a> (Tel Werk)</td>\n                </tr>\n              </tbody>\n            </table>\n          </div>"
      },
      "practitioner": {
        "reference": "urn:uuid:b3d44558-6acf-11ec-0000-020000000000",
        "type": "Practitioner",
        "display": "Healthcare professional (person), Peter van Pulver"
      },
      "organization": {
        "reference": "urn:uuid:7fa869d8-6b44-11ec-0000-020000000000",
        "type": "Organization",
        "display": "Healthcare provider (organization), Huisartsenpraktijk Pulver & Partners"
      },
      "specialty": [ {
        "coding": [ {
          "system": "urn:oid:2.16.840.1.113883.2.4.6.7",
          "version": "2020-10-23T00:00:00",
          "code": "0100",
          "display": "Huisartsen, niet nader gespecificeerd"
        } ]
      } ],
      "telecom": [ {
        "system": "phone",
        "value": "1645645000",
        "use": "work"
      } ]
    },
    "request": {
      "method": "POST",
      "url": "PractitionerRole"
    }
  }, {
    "fullUrl": "urn:uuid:b3d44558-6acf-11ec-0000-020000000000",
    "resource": {
      "resourceType": "Practitioner",
      "meta": {
        "profile": [ "http://nictiz.nl/fhir/StructureDefinition/nl-core-HealthProfessional-Practitioner" ]
      },
      "text": {
        "status": "extensions",
        "div": "<div xmlns=\"http://www.w3.org/1999/xhtml\">\n            <div>Id 000001111 (UZI-NR-PERS), Peter van Pulver</div>\n            <div>\n              <a href=\"tel:1645645000\">1645645000</a> (Tel Werk)</div>\n          </div>"
      },
      "identifier": [ {
        "system": "http://fhir.nl/fhir/NamingSystem/uzi-nr-pers",
        "value": "000001111"
      } ],
      "name": [ {
        "use": "official",
        "text": "Peter van Pulver",
        "family": "van Pulver",
        "_family": {
          "extension": [ {
            "url": "http://hl7.org/fhir/StructureDefinition/humanname-own-prefix",
            "valueString": "van"
          }, {
            "url": "http://hl7.org/fhir/StructureDefinition/humanname-own-name",
            "valueString": "Pulver"
          } ]
        },
        "given": [ "Peter" ],
        "_given": [ {
          "extension": [ {
            "url": "http://hl7.org/fhir/StructureDefinition/iso21090-EN-qualifier",
            "valueCode": "BR"
          } ]
        } ]
      } ],
      "telecom": [ {
        "system": "phone",
        "value": "1645645000",
        "use": "work"
      } ]
    },
    "request": {
      "method": "POST",
      "url": "Practitioner"
    }
  }, {
    "fullUrl": "urn:uuid:7fa869d8-6b44-11ec-0000-020000000000",
    "resource": {
      "resourceType": "Organization",
      "meta": {
        "profile": [ "http://nictiz.nl/fhir/StructureDefinition/nl-core-HealthcareProvider-Organization" ]
      },
      "text": {
        "status": "extensions",
        "div": "<div xmlns=\"http://www.w3.org/1999/xhtml\">\n            <table>\n              <caption>Organisatie. Id: 00001111 (URA)</caption>\n              <tbody>\n                <tr>\n                  <th>Naam</th>\n                  <td>Huisartsenpraktijk Pulver &amp; Partners</td>\n                </tr>\n                <tr>\n                  <th>Adres</th>\n                  <td>Dorpsstraat 1, 1234AA Ons Dorp (Werk)</td>\n                </tr>\n              </tbody>\n            </table>\n          </div>"
      },
      "identifier": [ {
        "system": "http://fhir.nl/fhir/NamingSystem/ura",
        "value": "00001111"
      } ],
      "name": "Huisartsenpraktijk Pulver & Partners",
      "address": [ {
        "extension": [ {
          "url": "http://nictiz.nl/fhir/StructureDefinition/ext-AddressInformation.AddressType",
          "valueCodeableConcept": {
            "coding": [ {
              "system": "http://terminology.hl7.org/CodeSystem/v3-AddressUse",
              "code": "WP",
              "display": "Werkadres"
            } ]
          }
        } ],
        "use": "work",
        "line": [ "Dorpsstraat 1" ],
        "_line": [ {
          "extension": [ {
            "url": "http://hl7.org/fhir/StructureDefinition/iso21090-ADXP-streetName",
            "valueString": "Dorpsstraat"
          }, {
            "url": "http://hl7.org/fhir/StructureDefinition/iso21090-ADXP-houseNumber",
            "valueString": "1"
          } ]
        } ],
        "city": "Ons Dorp",
        "postalCode": "1234AA"
      } ]
    },
    "request": {
      "method": "POST",
      "url": "Organization"
    }
  }, {
    "fullUrl": "urn:uuid:10079464-6b64-11ec-0000-020000000000",
    "resource": {
      "resourceType": "Organization",
      "meta": {
        "profile": [ "http://nictiz.nl/fhir/StructureDefinition/nl-core-HealthcareProvider-Organization" ]
      },
      "text": {
        "status": "extensions",
        "div": "<div xmlns=\"http://www.w3.org/1999/xhtml\">\n            <table>\n              <caption>Organisatie. Id: 01236578 (URA)</caption>\n              <tbody>\n                <tr>\n                  <th>Naam</th>\n                  <td>Apotheek De Gulle Gaper</td>\n                </tr>\n                <tr>\n                  <th>Adres</th>\n                  <td>Dorpsstraat 12 A, 1234AA Ons Dorp (Werk)</td>\n                </tr>\n              </tbody>\n            </table>\n          </div>"
      },
      "identifier": [ {
        "system": "http://fhir.nl/fhir/NamingSystem/ura",
        "value": "01236578"
      } ],
      "name": "Apotheek De Gulle Gaper",
      "address": [ {
        "extension": [ {
          "url": "http://nictiz.nl/fhir/StructureDefinition/ext-AddressInformation.AddressType",
          "valueCodeableConcept": {
            "coding": [ {
              "system": "http://terminology.hl7.org/CodeSystem/v3-AddressUse",
              "code": "WP",
              "display": "Werkadres"
            } ]
          }
        } ],
        "use": "work",
        "line": [ "Dorpsstraat 12 A" ],
        "_line": [ {
          "extension": [ {
            "url": "http://hl7.org/fhir/StructureDefinition/iso21090-ADXP-streetName",
            "valueString": "Dorpsstraat"
          }, {
            "url": "http://hl7.org/fhir/StructureDefinition/iso21090-ADXP-houseNumber",
            "valueString": "12"
          }, {
            "url": "http://hl7.org/fhir/StructureDefinition/iso21090-ADXP-buildingNumberSuffix",
            "valueString": "A"
          } ]
        } ],
        "city": "Ons Dorp",
        "postalCode": "1234AA"
      } ]
    },
    "request": {
      "method": "POST",
      "url": "Organization"
    }
  }, {
    "fullUrl": "urn:uuid:ff66025e-8d1f-11ef-1518-020000000000",
    "resource": {
      "resourceType": "Organization",
      "meta": {
        "profile": [ "http://nictiz.nl/fhir/StructureDefinition/nl-core-HealthcareProvider-Organization" ]
      },
      "text": {
        "status": "extensions",
        "div": "<div xmlns=\"http://www.w3.org/1999/xhtml\">\n            <table>\n              <caption>Organisatie. Id: 00003333 (URA)</caption>\n              <tbody>\n                <tr>\n                  <th>Naam</th>\n                  <td>Klinisch chemisch Lab 't Proefje</td>\n                </tr>\n                <tr>\n                  <th>Type</th>\n                  <td>\n                    <span title=\"Laboratorium (L1 - organization-type)\">Laboratorium</span>\n                  </td>\n                </tr>\n                <tr>\n                  <th>Contactgegevens</th>\n                  <td>\n                    <a href=\"tel:06-11122233\">06-11122233</a> (Tel Werk)<br/>\n                    <a href=\"mailto:tproefje@lab.nl\">tproefje@lab.nl</a> (E-mail Werk)<br/>\n                  </td>\n                </tr>\n                <tr>\n                  <th>Adres</th>\n                  <td>Hoofdstraat 23, 1234 AA Zorgstad (Werk)</td>\n                </tr>\n              </tbody>\n            </table>\n          </div>"
      },
      "identifier": [ {
        "system": "http://fhir.nl/fhir/NamingSystem/ura",
        "value": "00003333"
      } ],
      "type": [ {
        "coding": [ {
          "system": "http://nictiz.nl/fhir/NamingSystem/organization-type",
          "version": "2023-04-14T00:00:00",
          "code": "L1",
          "display": "Laboratorium"
        } ]
      } ],
      "name": "Klinisch chemisch Lab 't Proefje",
      "telecom": [ {
        "extension": [ {
          "url": "http://nictiz.nl/fhir/StructureDefinition/ext-Comment",
          "valueString": "Bel met vragen."
        } ],
        "system": "phone",
        "value": "06-11122233",
        "use": "work"
      }, {
        "system": "email",
        "value": "tproefje@lab.nl",
        "use": "work"
      } ],
      "address": [ {
        "extension": [ {
          "url": "http://nictiz.nl/fhir/StructureDefinition/ext-AddressInformation.AddressType",
          "valueCodeableConcept": {
            "coding": [ {
              "system": "http://terminology.hl7.org/CodeSystem/v3-AddressUse",
              "code": "WP",
              "display": "Werkadres"
            } ]
          }
        } ],
        "use": "work",
        "line": [ "Hoofdstraat 23" ],
        "_line": [ {
          "extension": [ {
            "url": "http://hl7.org/fhir/StructureDefinition/iso21090-ADXP-streetName",
            "valueString": "Hoofdstraat"
          }, {
            "url": "http://hl7.org/fhir/StructureDefinition/iso21090-ADXP-houseNumber",
            "valueString": "23"
          } ]
        } ],
        "city": "Zorgstad",
        "postalCode": "1234 AA"
      } ]
    },
    "request": {
      "method": "POST",
      "url": "Organization"
    }
  }, {
    "fullUrl": "urn:uuid:0fb46ee9-6b51-11ec-0000-020000000000",
    "resource": {
      "resourceType": "Medication",
      "meta": {
        "profile": [ "http://nictiz.nl/fhir/StructureDefinition/mp-PharmaceuticalProduct" ]
      },
      "text": {
        "status": "extensions",
        "div": "<div xmlns=\"http://www.w3.org/1999/xhtml\">\n            <table>\n              <tbody>\n                <tr>\n                  <th>Code</th>\n                  <td>\n                    <span title=\"DICLOFENAC-NATRIUM TABLET MSR 25MG (8060 - G-Standaard PRK)\">DICLOFENAC-NATRIUM TABLET MSR 25MG</span>\n                  </td>\n                </tr>\n              </tbody>\n            </table>\n          </div>"
      },
      "code": {
        "coding": [ {
          "system": "urn:oid:2.16.840.1.113883.2.4.4.10",
          "code": "8060",
          "display": "DICLOFENAC-NATRIUM TABLET MSR 25MG",
          "userSelected": true
        }, {
          "system": "urn:oid:2.16.840.1.113883.2.4.4.1",
          "code": "22276",
          "display": "DICLOFENAC-NATRIUM TABLET MSR 25MG"
        } ],
        "text": "DICLOFENAC-NATRIUM TABLET MSR 25MG"
      }
    },
    "request": {
      "method": "POST",
      "url": "Medication"
    }
  } ]
}