{
  "resourceType": "Bundle",
  "id": "mv-mp-vo-kwal-script2-extraVV-v30",
  "meta": {
    "profile": [ "http://nictiz.nl/fhir/StructureDefinition/mp-MedicationPrescription-Bundle" ]
  },
  "type": "transaction",
  "entry": [ {
    "fullUrl": "urn:uuid:7cb8712b-6b53-11ec-0000-020000000000",
    "resource": {
      "resourceType": "MedicationRequest",
      "meta": {
        "profile": [ "http://nictiz.nl/fhir/StructureDefinition/mp-MedicationAgreement" ],
        "tag": [ {
          "system": "http://terminology.hl7.org/CodeSystem/common-tags",
          "code": "actionable"
        } ]
      },
      "text": {
        "status": "extensions",
        "div": "<div xmlns=\"http://www.w3.org/1999/xhtml\">\n            <table>\n              <caption>MedicationRequest. Subject: Patient, M. van XXX_Noordman. Id: MBH_300_script2_MA (urn:oid:2.16.840.1.113883.2.4.3.11.999.77.16076005.1), Categorie: <span title=\"voorschrijven van geneesmiddel (33633005 - SNOMED CT)\">voorschrijven van geneesmiddel</span>, Status: actief<span style=\"display: block;\">Intentie: aanvraag</span>\n                <span style=\"display: block;\">Aangevraagd door: Healthcare professional (role), Peter van Pulver, Huisartsen, niet nader gespecificeerd, Huisartsenpraktijk Pulver &amp; Partners</span>\n              </caption>\n              <tfoot>\n                <tr>\n                  <td colspan=\"2\">INR range: 2,0 - 3,0</td>\n                </tr>\n              </tfoot>\n              <tbody>\n                <tr>\n                  <th>Medicatie</th>\n                  <td>ACENOCOUMAROL TABLET 1MG</td>\n                </tr>\n                <tr>\n                  <th>Doseerinstructie</th>\n                  <td>\n                    <div>Instructie: <span title=\"overig (OTH - http://terminology.hl7.org/CodeSystem/v3-NullFlavor)\">overig</span>\n                    </div>\n                    <div>Toedieningsweg: <span title=\"Oraal (9 - G-Standaard thesaurus subtabel 0007)\">Oraal</span>\n                    </div>\n                  </td>\n                </tr>\n              </tbody>\n            </table>\n          </div>"
      },
      "extension": [ {
        "url": "http://nictiz.nl/fhir/StructureDefinition/ext-RegistrationDateTime",
        "valueDateTime": "${DATE, T, D, -40}T10:31:00+02:00"
      }, {
        "url": "http://nictiz.nl/fhir/StructureDefinition/ext-RenderedDosageInstruction",
        "valueString": "Wordt gegenereerd"
      }, {
        "url": "http://nictiz.nl/fhir/StructureDefinition/ext-TimeInterval.Period",
        "valuePeriod": {
          "start": "${DATE, T, D, -40}T00:00:00+02:00"
        }
      }, {
        "url": "http://nictiz.nl/fhir/StructureDefinition/ext-PharmaceuticalTreatment.Identifier",
        "valueIdentifier": {
          "system": "urn:oid:2.16.840.1.113883.2.4.3.11.999.77.1.1",
          "value": "MBH_300_script2"
        }
      } ],
      "identifier": [ {
        "system": "urn:oid:2.16.840.1.113883.2.4.3.11.999.77.16076005.1",
        "value": "MBH_300_script2_MA"
      } ],
      "status": "active",
      "intent": "order",
      "category": [ {
        "coding": [ {
          "system": "http://snomed.info/sct",
          "code": "33633005",
          "display": "voorschrijven van geneesmiddel"
        } ]
      } ],
      "medicationReference": {
        "reference": "urn:uuid:ca0c3ae9-6aff-11ec-0000-020000000000",
        "type": "Medication",
        "display": "ACENOCOUMAROL TABLET 1MG"
      },
      "subject": {
        "reference": "urn:uuid:6db1ecb2-6aa7-11ec-0000-020000000000",
        "type": "Patient",
        "display": "Patient, M. van XXX_Noordman"
      },
      "requester": {
        "reference": "urn:uuid:aa50e824-6b4e-11ec-0000-020000000000",
        "type": "PractitionerRole",
        "display": "Healthcare professional (role), Peter van Pulver, Huisartsen, niet nader gespecificeerd, Huisartsenpraktijk Pulver & Partners"
      },
      "note": [ {
        "text": "INR range: 2,0 - 3,0"
      } ],
      "dosageInstruction": [ {
        "additionalInstruction": [ {
          "coding": [ {
            "system": "http://terminology.hl7.org/CodeSystem/v3-NullFlavor",
            "code": "OTH",
            "display": "overig"
          } ],
          "text": "Volgens schema trombosedienst"
        } ],
        "route": {
          "coding": [ {
            "system": "urn:oid:2.16.840.1.113883.2.4.4.9",
            "code": "9",
            "display": "Oraal"
          } ]
        }
      } ]
    },
    "request": {
      "method": "POST",
      "url": "MedicationRequest"
    }
  }, {
    "fullUrl": "urn:uuid:b6a39289-6af1-11ec-0000-020000000000",
    "resource": {
      "resourceType": "MedicationRequest",
      "meta": {
        "profile": [ "http://nictiz.nl/fhir/StructureDefinition/mp-DispenseRequest" ],
        "tag": [ {
          "system": "http://terminology.hl7.org/CodeSystem/common-tags",
          "code": "actionable"
        } ]
      },
      "text": {
        "status": "extensions",
        "div": "<div xmlns=\"http://www.w3.org/1999/xhtml\">\n            <table>\n              <caption>MedicationRequest. Subject: Patient, M. van XXX_Noordman. Id: MBH_300_script2_VV2 (urn:oid:2.16.840.1.113883.2.4.3.11.999.77.52711000146108.1), Categorie: <span title=\"verstrekkingsverzoek (52711000146108 - SNOMED CT)\">verstrekkingsverzoek</span>, Status: actief<span style=\"display: block;\">Intentie: aanvraag</span>\n                <span style=\"display: block;\">Aangevraagd door: Healthcare professional (role), Peter van Pulver, Huisartsen, niet nader gespecificeerd, Huisartsenpraktijk Pulver &amp; Partners</span>\n              </caption>\n              <tbody>\n                <tr>\n                  <th>Gebaseerd op</th>\n                  <td>relatie naar medicatieafspraak  met identificatie: MBH_300_script2_MA || 2.16.840.1.113883.2.4.3.11.999.77.16076005.1 (Id: MBH_300_script2_MA (urn:oid:2.16.840.1.113883.2.4.3.11.999.77.16076005.1))</td>\n                </tr>\n                <tr>\n                  <th>Medicatie</th>\n                  <td>ACENOCOUMAROL TABLET 1MG</td>\n                </tr>\n                <tr>\n                  <th>Gemaakt</th>\n                  <td>${DATE, T, D, -26}T13:33:00+02:00</td>\n                </tr>\n                <tr>\n                  <th>Toedieningsverzoek</th>\n                  <td>\n                    <div>Hoeveelheid: </div>\n                  </td>\n                </tr>\n              </tbody>\n            </table>\n          </div>"
      },
      "extension": [ {
        "url": "http://nictiz.nl/fhir/StructureDefinition/ext-PharmaceuticalTreatment.Identifier",
        "valueIdentifier": {
          "system": "urn:oid:2.16.840.1.113883.2.4.3.11.999.77.1.1",
          "value": "MBH_300_script2"
        }
      } ],
      "identifier": [ {
        "system": "urn:oid:2.16.840.1.113883.2.4.3.11.999.77.52711000146108.1",
        "value": "MBH_300_script2_VV2"
      } ],
      "status": "active",
      "intent": "order",
      "category": [ {
        "coding": [ {
          "system": "http://snomed.info/sct",
          "code": "52711000146108",
          "display": "verstrekkingsverzoek"
        } ]
      } ],
      "medicationReference": {
        "reference": "urn:uuid:ca0c3ae9-6aff-11ec-0000-020000000000",
        "type": "Medication",
        "display": "ACENOCOUMAROL TABLET 1MG"
      },
      "subject": {
        "reference": "urn:uuid:6db1ecb2-6aa7-11ec-0000-020000000000",
        "type": "Patient",
        "display": "Patient, M. van XXX_Noordman"
      },
      "authoredOn": "${DATE, T, D, -26}T13:33:00+02:00",
      "requester": {
        "reference": "urn:uuid:aa50e824-6b4e-11ec-0000-020000000000",
        "type": "PractitionerRole",
        "display": "Healthcare professional (role), Peter van Pulver, Huisartsen, niet nader gespecificeerd, Huisartsenpraktijk Pulver & Partners"
      },
      "performer": {
        "reference": "urn:uuid:10079464-6b64-11ec-0000-020000000000",
        "type": "Organization",
        "display": "Healthcare provider (organization), Apotheek De Gulle Gaper"
      },
      "basedOn": [ {
        "type": "MedicationRequest",
        "identifier": {
          "system": "urn:oid:2.16.840.1.113883.2.4.3.11.999.77.16076005.1",
          "value": "MBH_300_script2_MA"
        },
        "display": "relatie naar medicatieafspraak  met identificatie: MBH_300_script2_MA || 2.16.840.1.113883.2.4.3.11.999.77.16076005.1"
      } ],
      "dispenseRequest": {
        "quantity": {
          "extension": [ {
            "url": "http://hl7.org/fhir/StructureDefinition/iso21090-PQ-translation",
            "valueQuantity": {
              "value": 66,
              "unit": "stuk",
              "system": "urn:oid:2.16.840.1.113883.2.4.4.1.900.2",
              "code": "245"
            }
          } ],
          "value": 66,
          "unit": "stuk",
          "system": "http://unitsofmeasure.org",
          "code": "1"
        }
      }
    },
    "request": {
      "method": "POST",
      "url": "MedicationRequest"
    }
  }, {
    "fullUrl": "urn:uuid:6db1ecb2-6aa7-11ec-0000-020000000000",
    "resource": {
      "resourceType": "Patient",
      "meta": {
        "profile": [ "http://nictiz.nl/fhir/StructureDefinition/nl-core-Patient" ]
      },
      "text": {
        "status": "extensions",
        "div": "<div xmlns=\"http://www.w3.org/1999/xhtml\">\n            <div>Id 999900857 (BSN), <span title=\"Naamsamenstelling: Eigennaam\">M. van XXX_Noordman</span>, Vrouw, 30 oktober 1985</div>\n            <div>Knolweg 1002, 9999ZZ Stitswerd STITSWERD, Nederland</div>\n          </div>"
      },
      "identifier": [ {
        "system": "http://fhir.nl/fhir/NamingSystem/bsn",
        "value": "999900857"
      } ],
      "name": [ {
        "extension": [ {
          "url": "http://hl7.org/fhir/StructureDefinition/humanname-assembly-order",
          "valueCode": "NL1"
        } ],
        "use": "official",
        "text": "M. van XXX_Noordman",
        "family": "van XXX_Noordman",
        "_family": {
          "extension": [ {
            "url": "http://hl7.org/fhir/StructureDefinition/humanname-own-prefix",
            "valueString": "van"
          }, {
            "url": "http://hl7.org/fhir/StructureDefinition/humanname-own-name",
            "valueString": "XXX_Noordman"
          } ]
        },
        "given": [ "M." ],
        "_given": [ {
          "extension": [ {
            "url": "http://hl7.org/fhir/StructureDefinition/iso21090-EN-qualifier",
            "valueCode": "IN"
          } ]
        } ]
      } ],
      "gender": "female",
      "_gender": {
        "extension": [ {
          "url": "http://nictiz.nl/fhir/StructureDefinition/ext-CodeSpecification",
          "valueCodeableConcept": {
            "coding": [ {
              "system": "http://terminology.hl7.org/CodeSystem/v3-AdministrativeGender",
              "code": "F",
              "display": "Vrouw"
            } ]
          }
        } ]
      },
      "birthDate": "1985-10-30",
      "address": [ {
        "extension": [ {
          "url": "http://nictiz.nl/fhir/StructureDefinition/ext-AddressInformation.AddressType",
          "valueCodeableConcept": {
            "coding": [ {
              "system": "http://terminology.hl7.org/CodeSystem/v3-AddressUse",
              "code": "PST",
              "display": "Postadres"
            } ]
          }
        } ],
        "type": "postal",
        "line": [ "Knolweg 1002" ],
        "_line": [ {
          "extension": [ {
            "url": "http://hl7.org/fhir/StructureDefinition/iso21090-ADXP-streetName",
            "valueString": "Knolweg"
          }, {
            "url": "http://hl7.org/fhir/StructureDefinition/iso21090-ADXP-houseNumber",
            "valueString": "1002"
          } ]
        } ],
        "city": "Stitswerd",
        "district": "STITSWERD",
        "postalCode": "9999ZZ",
        "country": "Nederland",
        "_country": {
          "extension": [ {
            "url": "http://nictiz.nl/fhir/StructureDefinition/ext-CodeSpecification",
            "valueCodeableConcept": {
              "coding": [ {
                "system": "urn:iso:std:iso:3166",
                "version": "2020-10-26T00:00:00",
                "code": "NL",
                "display": "Nederland"
              } ]
            }
          } ]
        }
      } ]
    },
    "request": {
      "method": "POST",
      "url": "Patient"
    }
  }, {
    "fullUrl": "urn:uuid:aa50e824-6b4e-11ec-0000-020000000000",
    "resource": {
      "resourceType": "PractitionerRole",
      "meta": {
        "profile": [ "http://nictiz.nl/fhir/StructureDefinition/nl-core-HealthProfessional-PractitionerRole" ]
      },
      "text": {
        "status": "extensions",
        "div": "<div xmlns=\"http://www.w3.org/1999/xhtml\">\n            <table>\n              <caption>Zorgverlenerrol. </caption>\n              <tbody>\n                <tr>\n                  <th>Zorgverlener</th>\n                  <td>\n                    <div>Healthcare professional (person), Peter van Pulver</div>\n                    <div>Healthcare provider (organization), Huisartsenpraktijk Pulver &amp; Partners</div>\n                  </td>\n                </tr>\n                <tr>\n                  <th>Specialisme</th>\n                  <td>\n                    <span title=\"Huisartsen, niet nader gespecificeerd (0100 - AGB-medisch specialisme)\">Huisartsen, niet nader gespecificeerd</span>\n                  </td>\n                </tr>\n                <tr>\n                  <th>Contactgegevens</th>\n                  <td>\n                    <a href=\"tel:1647178000\">1647178000</a> (Tel Werk)</td>\n                </tr>\n              </tbody>\n            </table>\n          </div>"
      },
      "practitioner": {
        "reference": "urn:uuid:407b0558-6ac8-11ec-0000-020000000000",
        "type": "Practitioner",
        "display": "Healthcare professional (person), Peter van Pulver"
      },
      "organization": {
        "reference": "urn:uuid:7fa869d8-6b44-11ec-0000-020000000000",
        "type": "Organization",
        "display": "Healthcare provider (organization), Huisartsenpraktijk Pulver & Partners"
      },
      "specialty": [ {
        "coding": [ {
          "system": "urn:oid:2.16.840.1.113883.2.4.6.7",
          "version": "2020-10-23T00:00:00",
          "code": "0100",
          "display": "Huisartsen, niet nader gespecificeerd"
        } ]
      } ],
      "telecom": [ {
        "system": "phone",
        "value": "1647178000",
        "use": "work"
      } ]
    },
    "request": {
      "method": "POST",
      "url": "PractitionerRole"
    }
  }, {
    "fullUrl": "urn:uuid:407b0558-6ac8-11ec-0000-020000000000",
    "resource": {
      "resourceType": "Practitioner",
      "meta": {
        "profile": [ "http://nictiz.nl/fhir/StructureDefinition/nl-core-HealthProfessional-Practitioner" ]
      },
      "text": {
        "status": "extensions",
        "div": "<div xmlns=\"http://www.w3.org/1999/xhtml\">\n            <div>Id 000001111 (UZI-NR-PERS), Peter van Pulver</div>\n            <div>\n              <a href=\"tel:1647178000\">1647178000</a> (Tel Werk)</div>\n          </div>"
      },
      "identifier": [ {
        "system": "http://fhir.nl/fhir/NamingSystem/uzi-nr-pers",
        "value": "000001111"
      } ],
      "name": [ {
        "use": "official",
        "text": "Peter van Pulver",
        "family": "van Pulver",
        "_family": {
          "extension": [ {
            "url": "http://hl7.org/fhir/StructureDefinition/humanname-own-prefix",
            "valueString": "van"
          }, {
            "url": "http://hl7.org/fhir/StructureDefinition/humanname-own-name",
            "valueString": "Pulver"
          } ]
        },
        "given": [ "Peter" ],
        "_given": [ {
          "extension": [ {
            "url": "http://hl7.org/fhir/StructureDefinition/iso21090-EN-qualifier",
            "valueCode": "BR"
          } ]
        } ]
      } ],
      "telecom": [ {
        "system": "phone",
        "value": "1647178000",
        "use": "work"
      } ]
    },
    "request": {
      "method": "POST",
      "url": "Practitioner"
    }
  }, {
    "fullUrl": "urn:uuid:7fa869d8-6b44-11ec-0000-020000000000",
    "resource": {
      "resourceType": "Organization",
      "meta": {
        "profile": [ "http://nictiz.nl/fhir/StructureDefinition/nl-core-HealthcareProvider-Organization" ]
      },
      "text": {
        "status": "extensions",
        "div": "<div xmlns=\"http://www.w3.org/1999/xhtml\">\n            <table>\n              <caption>Organisatie. Id: 00001111 (URA)</caption>\n              <tbody>\n                <tr>\n                  <th>Naam</th>\n                  <td>Huisartsenpraktijk Pulver &amp; Partners</td>\n                </tr>\n                <tr>\n                  <th>Adres</th>\n                  <td>Dorpsstraat 1, 1234AA Ons Dorp (Werk)</td>\n                </tr>\n              </tbody>\n            </table>\n          </div>"
      },
      "identifier": [ {
        "system": "http://fhir.nl/fhir/NamingSystem/ura",
        "value": "00001111"
      } ],
      "name": "Huisartsenpraktijk Pulver & Partners",
      "address": [ {
        "extension": [ {
          "url": "http://nictiz.nl/fhir/StructureDefinition/ext-AddressInformation.AddressType",
          "valueCodeableConcept": {
            "coding": [ {
              "system": "http://terminology.hl7.org/CodeSystem/v3-AddressUse",
              "code": "WP",
              "display": "Werkadres"
            } ]
          }
        } ],
        "use": "work",
        "line": [ "Dorpsstraat 1" ],
        "_line": [ {
          "extension": [ {
            "url": "http://hl7.org/fhir/StructureDefinition/iso21090-ADXP-streetName",
            "valueString": "Dorpsstraat"
          }, {
            "url": "http://hl7.org/fhir/StructureDefinition/iso21090-ADXP-houseNumber",
            "valueString": "1"
          } ]
        } ],
        "city": "Ons Dorp",
        "postalCode": "1234AA"
      } ]
    },
    "request": {
      "method": "POST",
      "url": "Organization"
    }
  }, {
    "fullUrl": "urn:uuid:10079464-6b64-11ec-0000-020000000000",
    "resource": {
      "resourceType": "Organization",
      "meta": {
        "profile": [ "http://nictiz.nl/fhir/StructureDefinition/nl-core-HealthcareProvider-Organization" ]
      },
      "text": {
        "status": "extensions",
        "div": "<div xmlns=\"http://www.w3.org/1999/xhtml\">\n            <table>\n              <caption>Organisatie. Id: 01236578 (URA)</caption>\n              <tbody>\n                <tr>\n                  <th>Naam</th>\n                  <td>Apotheek De Gulle Gaper</td>\n                </tr>\n                <tr>\n                  <th>Adres</th>\n                  <td>Dorpsstraat 12 A, 1234AA Ons Dorp (Werk)</td>\n                </tr>\n              </tbody>\n            </table>\n          </div>"
      },
      "identifier": [ {
        "system": "http://fhir.nl/fhir/NamingSystem/ura",
        "value": "01236578"
      } ],
      "name": "Apotheek De Gulle Gaper",
      "address": [ {
        "extension": [ {
          "url": "http://nictiz.nl/fhir/StructureDefinition/ext-AddressInformation.AddressType",
          "valueCodeableConcept": {
            "coding": [ {
              "system": "http://terminology.hl7.org/CodeSystem/v3-AddressUse",
              "code": "WP",
              "display": "Werkadres"
            } ]
          }
        } ],
        "use": "work",
        "line": [ "Dorpsstraat 12 A" ],
        "_line": [ {
          "extension": [ {
            "url": "http://hl7.org/fhir/StructureDefinition/iso21090-ADXP-streetName",
            "valueString": "Dorpsstraat"
          }, {
            "url": "http://hl7.org/fhir/StructureDefinition/iso21090-ADXP-houseNumber",
            "valueString": "12"
          }, {
            "url": "http://hl7.org/fhir/StructureDefinition/iso21090-ADXP-buildingNumberSuffix",
            "valueString": "A"
          } ]
        } ],
        "city": "Ons Dorp",
        "postalCode": "1234AA"
      } ]
    },
    "request": {
      "method": "POST",
      "url": "Organization"
    }
  }, {
    "fullUrl": "urn:uuid:ca0c3ae9-6aff-11ec-0000-020000000000",
    "resource": {
      "resourceType": "Medication",
      "meta": {
        "profile": [ "http://nictiz.nl/fhir/StructureDefinition/mp-PharmaceuticalProduct" ]
      },
      "text": {
        "status": "extensions",
        "div": "<div xmlns=\"http://www.w3.org/1999/xhtml\">\n            <table>\n              <tbody>\n                <tr>\n                  <th>Code</th>\n                  <td>\n                    <span title=\"ACENOCOUMAROL TABLET 1MG (7323 - G-Standaard PRK)\">ACENOCOUMAROL TABLET 1MG</span>\n                  </td>\n                </tr>\n              </tbody>\n            </table>\n          </div>"
      },
      "code": {
        "coding": [ {
          "system": "urn:oid:2.16.840.1.113883.2.4.4.10",
          "code": "7323",
          "display": "ACENOCOUMAROL TABLET 1MG",
          "userSelected": true
        }, {
          "system": "urn:oid:2.16.840.1.113883.2.4.4.1",
          "code": "20303",
          "display": "ACENOCOUMAROL TABLET 1MG"
        } ],
        "text": "ACENOCOUMAROL TABLET 1MG"
      }
    },
    "request": {
      "method": "POST",
      "url": "Medication"
    }
  } ]
}