<Bundle xmlns="http://hl7.org/fhir">
  <id value="mv-mp-vo-kwal-script1-wijziging-v30"/>
  <meta>
    <profile value="http://nictiz.nl/fhir/StructureDefinition/mp-MedicationPrescription-Bundle"/>
  </meta>
  <type value="transaction"/>
  <entry>
    <fullUrl value="urn:uuid:198f09ab-6b45-11ec-0000-020000000000"/>
    <resource>
      <MedicationRequest>
        <meta>
          <profile value="http://nictiz.nl/fhir/StructureDefinition/mp-MedicationAgreement"/>
          <tag>
            <system value="http://terminology.hl7.org/CodeSystem/common-tags"/>
            <code value="actionable"/>
          </tag>
        </meta>
        <text>
          <status value="extensions"/>
          <div xmlns="http://www.w3.org/1999/xhtml">
            <table>
              <caption>MedicationRequest. Subject: Patient, P. XXX_Schut. Id: MBH_300_SCRIPT1_MA_STOP (urn:oid:2.16.840.1.113883.2.4.3.11.999.77.16076005.1), Categorie: <span title="voorschrijven van geneesmiddel (33633005 - SNOMED CT)">voorschrijven van geneesmiddel</span>, Status: actief<span style="display: block;">Intentie: aanvraag</span>
                <span style="display: block;">Aangevraagd door: Healthcare professional (role), Peter van Pulver, Huisartsen, niet nader gespecificeerd, Huisartsenpraktijk Pulver &amp; Partners</span>
              </caption>
              <tbody>
                <tr>
                  <th>Medicatie</th>
                  <td>CAPECITABINE TABLET FO 500MG</td>
                </tr>
                <tr>
                  <th>Doseerinstructie</th>
                  <td>
                    <div>Timing: <div>14 dag09:00:00, 21:00:00. Tijden zo precies mogelijk aanhouden</div>
                    </div>
                    <div>Toedieningsweg: <span title="oraal (9 - G-Standaard thesaurus subtabel 0007)">oraal</span>
                    </div>
                    <div>Dosering: doseAndRate TODO</div>
                  </td>
                </tr>
              </tbody>
            </table>
          </div>
        </text>
        <extension url="http://nictiz.nl/fhir/StructureDefinition/ext-RegistrationDateTime">
          <valueDateTime value="${DATE, T, D, +20}T07:20:00+02:00"/>
        </extension>
        <extension url="http://nictiz.nl/fhir/StructureDefinition/ext-RenderedDosageInstruction">
          <valueString value="Wordt gegenereerd"/>
        </extension>
        <extension url="http://nictiz.nl/fhir/StructureDefinition/ext-TimeInterval.Period">
          <valuePeriod>
            <start value="${DATE, T, D, +0}T00:00:00+02:00"/>
            <end value="${DATE, T, D, +20}T23:59:59+02:00"/>
          </valuePeriod>
        </extension>
        <extension url="http://nictiz.nl/fhir/StructureDefinition/ext-PharmaceuticalTreatment.Identifier">
          <valueIdentifier>
            <system value="urn:oid:2.16.840.1.113883.2.4.3.11.999.77.1.1"/>
            <value value="MBH_300_SCRIPT1"/>
          </valueIdentifier>
        </extension>
        <modifierExtension url="http://nictiz.nl/fhir/StructureDefinition/ext-InstructionsForUse.RepeatPeriodCyclicalSchedule">
          <valueDuration>
            <value value="21"/>
            <unit value="dag"/>
            <system value="http://unitsofmeasure.org"/>
            <code value="d"/>
          </valueDuration>
        </modifierExtension>
        <modifierExtension url="http://nictiz.nl/fhir/StructureDefinition/ext-StopType">
          <valueCodeableConcept>
            <coding>
              <system value="http://snomed.info/sct"/>
              <code value="410546004"/>
              <display value="stopgezet"/>
            </coding>
          </valueCodeableConcept>
        </modifierExtension>
        <identifier>
          <system value="urn:oid:2.16.840.1.113883.2.4.3.11.999.77.16076005.1"/>
          <value value="MBH_300_SCRIPT1_MA_STOP"/>
        </identifier>
        <status value="active"/>
        <intent value="order"/>
        <category>
          <coding>
            <system value="http://snomed.info/sct"/>
            <code value="33633005"/>
            <display value="voorschrijven van geneesmiddel"/>
          </coding>
        </category>
        <medicationReference>
          <reference value="urn:uuid:8f94fd04-6b68-11ec-0000-020000000000"/>
          <type value="Medication"/>
          <display value="CAPECITABINE TABLET FO 500MG"/>
        </medicationReference>
        <subject>
          <reference value="urn:uuid:3ae2f678-6b63-11ec-0000-020000000000"/>
          <type value="Patient"/>
          <display value="Patient, P. XXX_Schut"/>
        </subject>
        <requester>
          <reference value="urn:uuid:7af79824-6ac8-11ec-0000-020000000000"/>
          <type value="PractitionerRole"/>
          <display value="Healthcare professional (role), Peter van Pulver, Huisartsen, niet nader gespecificeerd, Huisartsenpraktijk Pulver &amp; Partners"/>
        </requester>
        <dosageInstruction>
          <timing>
            <repeat>
              <extension url="http://hl7.org/fhir/StructureDefinition/timing-exact">
                <valueBoolean value="true"/>
              </extension>
              <boundsDuration>
                <value value="14"/>
                <unit value="dag"/>
                <system value="http://unitsofmeasure.org"/>
                <code value="d"/>
              </boundsDuration>
              <timeOfDay value="09:00:00"/>
              <timeOfDay value="21:00:00"/>
            </repeat>
          </timing>
          <route>
            <coding>
              <system value="urn:oid:2.16.840.1.113883.2.4.4.9"/>
              <code value="9"/>
              <display value="oraal"/>
            </coding>
          </route>
          <doseAndRate>
            <doseQuantity>
              <extension url="http://hl7.org/fhir/StructureDefinition/iso21090-PQ-translation">
                <valueQuantity>
                  <value value="4"/>
                  <unit value="stuk"/>
                  <system value="urn:oid:2.16.840.1.113883.2.4.4.1.900.2"/>
                  <code value="245"/>
                </valueQuantity>
              </extension>
              <value value="4"/>
              <unit value="stuk"/>
              <system value="http://unitsofmeasure.org"/>
              <code value="1"/>
            </doseQuantity>
          </doseAndRate>
        </dosageInstruction>
        <priorPrescription>
          <type value="MedicationRequest"/>
          <identifier>
            <system value="urn:oid:2.16.840.1.113883.2.4.3.11.999.77.16076005.1"/>
            <value value="MBH_300_SCRIPT1_MA"/>
          </identifier>
          <display value="relatie naar medicatieafspraak: MBH_300_SCRIPT1_MA || 2.16.840.1.113883.2.4.3.11.999.77.16076005.1"/>
        </priorPrescription>
      </MedicationRequest>
    </resource>
    <request>
      <method value="POST"/>
      <url value="MedicationRequest"/>
    </request>
  </entry>
  <entry>
    <fullUrl value="urn:uuid:7e0d4cab-6aac-11ec-0000-020000000000"/>
    <resource>
      <MedicationRequest>
        <meta>
          <profile value="http://nictiz.nl/fhir/StructureDefinition/mp-MedicationAgreement"/>
          <tag>
            <system value="http://terminology.hl7.org/CodeSystem/common-tags"/>
            <code value="actionable"/>
          </tag>
        </meta>
        <text>
          <status value="extensions"/>
          <div xmlns="http://www.w3.org/1999/xhtml">
            <table>
              <caption>MedicationRequest. Subject: Patient, P. XXX_Schut. Id: MBH_300_SCRIPT1_MA_WIJZIGING (urn:oid:2.16.840.1.113883.2.4.3.11.999.77.16076005.1), Categorie: <span title="voorschrijven van geneesmiddel (33633005 - SNOMED CT)">voorschrijven van geneesmiddel</span>, Status: actief<span style="display: block;">Intentie: aanvraag</span>
                <span style="display: block;">Aangevraagd door: Healthcare professional (role), Peter van Pulver, Huisartsen, niet nader gespecificeerd, Huisartsenpraktijk Pulver &amp; Partners</span>
              </caption>
              <tbody>
                <tr>
                  <th>Medicatie</th>
                  <td>CAPECITABINE TABLET FO 500MG</td>
                </tr>
                <tr>
                  <th>Reden</th>
                  <td>
                    <span title="gebrek aan geneesmiddeleffect (58848006 - SNOMED CT)">gebrek aan geneesmiddeleffect</span>
                  </td>
                </tr>
                <tr>
                  <th>Doseerinstructie</th>
                  <td>
                    <div>Timing: <div>14 dag09:00:00, 21:00:00. Tijden zo precies mogelijk aanhouden</div>
                    </div>
                    <div>Toedieningsweg: <span title="oraal (9 - G-Standaard thesaurus subtabel 0007)">oraal</span>
                    </div>
                    <div>Dosering: doseAndRate TODO</div>
                  </td>
                </tr>
              </tbody>
            </table>
          </div>
        </text>
        <extension url="http://nictiz.nl/fhir/StructureDefinition/ext-RegistrationDateTime">
          <valueDateTime value="${DATE, T, D, +20}T07:20:00+02:00"/>
        </extension>
        <extension url="http://nictiz.nl/fhir/StructureDefinition/ext-RenderedDosageInstruction">
          <valueString value="Vanaf &lt;T+13D{00:00:00}&gt; t/m &lt;T+137D{23:59:59}&gt;, 2 maal daags 2000mg, oraal."/>
        </extension>
        <extension url="http://nictiz.nl/fhir/StructureDefinition/ext-TimeInterval.Period">
          <valuePeriod>
            <extension url="http://nictiz.nl/fhir/StructureDefinition/ext-TimeInterval.Duration">
              <valueDuration>
                <value value="18"/>
                <unit value="week"/>
                <system value="http://unitsofmeasure.org"/>
                <code value="wk"/>
              </valueDuration>
            </extension>
            <start value="${DATE, T, D, +21}T00:00:00+02:00"/>
          </valuePeriod>
        </extension>
        <extension url="http://nictiz.nl/fhir/StructureDefinition/ext-PharmaceuticalTreatment.Identifier">
          <valueIdentifier>
            <system value="urn:oid:2.16.840.1.113883.2.4.3.11.999.77.1.1"/>
            <value value="MBH_300_SCRIPT1"/>
          </valueIdentifier>
        </extension>
        <modifierExtension url="http://nictiz.nl/fhir/StructureDefinition/ext-InstructionsForUse.RepeatPeriodCyclicalSchedule">
          <valueDuration>
            <value value="21"/>
            <unit value="dag"/>
            <system value="http://unitsofmeasure.org"/>
            <code value="d"/>
          </valueDuration>
        </modifierExtension>
        <identifier>
          <system value="urn:oid:2.16.840.1.113883.2.4.3.11.999.77.16076005.1"/>
          <value value="MBH_300_SCRIPT1_MA_WIJZIGING"/>
        </identifier>
        <status value="active"/>
        <intent value="order"/>
        <category>
          <coding>
            <system value="http://snomed.info/sct"/>
            <code value="33633005"/>
            <display value="voorschrijven van geneesmiddel"/>
          </coding>
        </category>
        <medicationReference>
          <reference value="urn:uuid:8f94fd04-6b68-11ec-0000-020000000000"/>
          <type value="Medication"/>
          <display value="CAPECITABINE TABLET FO 500MG"/>
        </medicationReference>
        <subject>
          <reference value="urn:uuid:3ae2f678-6b63-11ec-0000-020000000000"/>
          <type value="Patient"/>
          <display value="Patient, P. XXX_Schut"/>
        </subject>
        <requester>
          <reference value="urn:uuid:7af79824-6ac8-11ec-0000-020000000000"/>
          <type value="PractitionerRole"/>
          <display value="Healthcare professional (role), Peter van Pulver, Huisartsen, niet nader gespecificeerd, Huisartsenpraktijk Pulver &amp; Partners"/>
        </requester>
        <reasonCode>
          <coding>
            <system value="http://snomed.info/sct"/>
            <code value="58848006"/>
            <display value="gebrek aan geneesmiddeleffect"/>
          </coding>
        </reasonCode>
        <dosageInstruction>
          <timing>
            <repeat>
              <extension url="http://hl7.org/fhir/StructureDefinition/timing-exact">
                <valueBoolean value="true"/>
              </extension>
              <boundsDuration>
                <value value="14"/>
                <unit value="dag"/>
                <system value="http://unitsofmeasure.org"/>
                <code value="d"/>
              </boundsDuration>
              <timeOfDay value="09:00:00"/>
              <timeOfDay value="21:00:00"/>
            </repeat>
          </timing>
          <route>
            <coding>
              <system value="urn:oid:2.16.840.1.113883.2.4.4.9"/>
              <code value="9"/>
              <display value="oraal"/>
            </coding>
          </route>
          <doseAndRate>
            <doseQuantity>
              <extension url="http://hl7.org/fhir/StructureDefinition/iso21090-PQ-translation">
                <valueQuantity>
                  <value value="5"/>
                  <unit value="stuk"/>
                  <system value="urn:oid:2.16.840.1.113883.2.4.4.1.900.2"/>
                  <code value="245"/>
                </valueQuantity>
              </extension>
              <value value="5"/>
              <unit value="stuk"/>
              <system value="http://unitsofmeasure.org"/>
              <code value="1"/>
            </doseQuantity>
          </doseAndRate>
        </dosageInstruction>
        <priorPrescription>
          <type value="MedicationRequest"/>
          <identifier>
            <system value="urn:oid:2.16.840.1.113883.2.4.3.11.999.77.16076005.1"/>
            <value value="MBH_300_SCRIPT1_MA"/>
          </identifier>
          <display value="relatie naar medicatieafspraak: MBH_300_SCRIPT1_MA || 2.16.840.1.113883.2.4.3.11.999.77.16076005.1"/>
        </priorPrescription>
      </MedicationRequest>
    </resource>
    <request>
      <method value="POST"/>
      <url value="MedicationRequest"/>
    </request>
  </entry>
  <entry>
    <fullUrl value="urn:uuid:e28a337d-6aa7-11ec-0000-020000000000"/>
    <resource>
      <MedicationRequest>
        <meta>
          <profile value="http://nictiz.nl/fhir/StructureDefinition/mp-DispenseRequest"/>
          <tag>
            <system value="http://terminology.hl7.org/CodeSystem/common-tags"/>
            <code value="actionable"/>
          </tag>
        </meta>
        <text>
          <status value="extensions"/>
          <div xmlns="http://www.w3.org/1999/xhtml">
            <table>
              <caption>MedicationRequest. Subject: Patient, P. XXX_Schut. Id: MBH_300_SCRIPT1_VV_WIJZIGING (urn:oid:2.16.840.1.113883.2.4.3.11.999.77.52711000146108.1), Categorie: <span title="verstrekkingsverzoek (52711000146108 - SNOMED CT)">verstrekkingsverzoek</span>, Status: actief<span style="display: block;">Intentie: aanvraag</span>
                <span style="display: block;">Aangevraagd door: Healthcare professional (role), Peter van Pulver, Huisartsen, niet nader gespecificeerd, Huisartsenpraktijk Pulver &amp; Partners</span>
              </caption>
              <tbody>
                <tr>
                  <th>Gebaseerd op</th>
                  <td>relatie naar medicatieafspraak  met identificatie: MBH_300_SCRIPT1_MA_WIJZIGING || 2.16.840.1.113883.2.4.3.11.999.77.16076005.1 (Id: MBH_300_SCRIPT1_MA_WIJZIGING (urn:oid:2.16.840.1.113883.2.4.3.11.999.77.16076005.1))</td>
                </tr>
                <tr>
                  <th>Medicatie</th>
                  <td>CAPECITABINE TABLET FO 500MG</td>
                </tr>
                <tr>
                  <th>Gemaakt</th>
                  <td>${DATE, T, D, +20}T07:20:00+02:00</td>
                </tr>
                <tr>
                  <th>Toedieningsverzoek</th>
                  <td>
                    <div>Geldigheidsperiode: Vanaf </div>
                    <div>Max Repeats: 5</div>
                  </td>
                </tr>
              </tbody>
            </table>
          </div>
        </text>
        <extension url="http://nictiz.nl/fhir/StructureDefinition/ext-PharmaceuticalTreatment.Identifier">
          <valueIdentifier>
            <system value="urn:oid:2.16.840.1.113883.2.4.3.11.999.77.1.1"/>
            <value value="MBH_300_SCRIPT1"/>
          </valueIdentifier>
        </extension>
        <identifier>
          <system value="urn:oid:2.16.840.1.113883.2.4.3.11.999.77.52711000146108.1"/>
          <value value="MBH_300_SCRIPT1_VV_WIJZIGING"/>
        </identifier>
        <status value="active"/>
        <intent value="order"/>
        <category>
          <coding>
            <system value="http://snomed.info/sct"/>
            <code value="52711000146108"/>
            <display value="verstrekkingsverzoek"/>
          </coding>
        </category>
        <medicationReference>
          <reference value="urn:uuid:8f94fd04-6b68-11ec-0000-020000000000"/>
          <type value="Medication"/>
          <display value="CAPECITABINE TABLET FO 500MG"/>
        </medicationReference>
        <subject>
          <reference value="urn:uuid:3ae2f678-6b63-11ec-0000-020000000000"/>
          <type value="Patient"/>
          <display value="Patient, P. XXX_Schut"/>
        </subject>
        <authoredOn value="${DATE, T, D, +20}T07:20:00+02:00"/>
        <requester>
          <reference value="urn:uuid:7af79824-6ac8-11ec-0000-020000000000"/>
          <type value="PractitionerRole"/>
          <display value="Healthcare professional (role), Peter van Pulver, Huisartsen, niet nader gespecificeerd, Huisartsenpraktijk Pulver &amp; Partners"/>
        </requester>
        <performer>
          <reference value="urn:uuid:10079464-6b64-11ec-0000-020000000000"/>
          <type value="Organization"/>
          <display value="Healthcare provider (organization), Apotheek De Gulle Gaper"/>
        </performer>
        <basedOn>
          <type value="MedicationRequest"/>
          <identifier>
            <system value="urn:oid:2.16.840.1.113883.2.4.3.11.999.77.16076005.1"/>
            <value value="MBH_300_SCRIPT1_MA_WIJZIGING"/>
          </identifier>
          <display value="relatie naar medicatieafspraak  met identificatie: MBH_300_SCRIPT1_MA_WIJZIGING || 2.16.840.1.113883.2.4.3.11.999.77.16076005.1"/>
        </basedOn>
        <dispenseRequest>
          <validityPeriod>
            <extension url="http://nictiz.nl/fhir/StructureDefinition/ext-TimeInterval.Duration">
              <valueDuration>
                <value value="3"/>
                <unit value="week"/>
                <system value="http://unitsofmeasure.org"/>
                <code value="wk"/>
              </valueDuration>
            </extension>
          </validityPeriod>
          <numberOfRepeatsAllowed value="5"/>
        </dispenseRequest>
      </MedicationRequest>
    </resource>
    <request>
      <method value="POST"/>
      <url value="MedicationRequest"/>
    </request>
  </entry>
  <entry>
    <fullUrl value="urn:uuid:3ae2f678-6b63-11ec-0000-020000000000"/>
    <resource>
      <Patient>
        <meta>
          <profile value="http://nictiz.nl/fhir/StructureDefinition/nl-core-Patient"/>
        </meta>
        <text>
          <status value="extensions"/>
          <div xmlns="http://www.w3.org/1999/xhtml">
            <div>Id 999901059 (BSN), <span title="Naamsamenstelling: Eigennaam">P. XXX_Schut</span>, Vrouw, 17 november 1985</div>
          </div>
        </text>
        <identifier>
          <system value="http://fhir.nl/fhir/NamingSystem/bsn"/>
          <value value="999901059"/>
        </identifier>
        <name>
          <extension url="http://hl7.org/fhir/StructureDefinition/humanname-assembly-order">
            <valueCode value="NL1"/>
          </extension>
          <use value="official"/>
          <text value="P. XXX_Schut"/>
          <family value="XXX_Schut">
            <extension url="http://hl7.org/fhir/StructureDefinition/humanname-own-name">
              <valueString value="XXX_Schut"/>
            </extension>
          </family>
          <given value="P.">
            <extension url="http://hl7.org/fhir/StructureDefinition/iso21090-EN-qualifier">
              <valueCode value="IN"/>
            </extension>
          </given>
        </name>
        <gender value="female">
          <extension url="http://nictiz.nl/fhir/StructureDefinition/ext-CodeSpecification">
            <valueCodeableConcept>
              <coding>
                <system value="http://terminology.hl7.org/CodeSystem/v3-AdministrativeGender"/>
                <code value="F"/>
                <display value="Vrouw"/>
              </coding>
            </valueCodeableConcept>
          </extension>
        </gender>
        <birthDate value="1985-11-17"/>
      </Patient>
    </resource>
    <request>
      <method value="POST"/>
      <url value="Patient"/>
    </request>
  </entry>
  <entry>
    <fullUrl value="urn:uuid:7af79824-6ac8-11ec-0000-020000000000"/>
    <resource>
      <PractitionerRole>
        <meta>
          <profile value="http://nictiz.nl/fhir/StructureDefinition/nl-core-HealthProfessional-PractitionerRole"/>
        </meta>
        <text>
          <status value="extensions"/>
          <div xmlns="http://www.w3.org/1999/xhtml">
            <table>
              <caption>Zorgverlenerrol. </caption>
              <tbody>
                <tr>
                  <th>Zorgverlener</th>
                  <td>
                    <div>Healthcare professional (person), Peter van Pulver</div>
                    <div>Healthcare provider (organization), Huisartsenpraktijk Pulver &amp; Partners</div>
                  </td>
                </tr>
                <tr>
                  <th>Specialisme</th>
                  <td>
                    <span title="Huisartsen, niet nader gespecificeerd (0100 - AGB-medisch specialisme)">Huisartsen, niet nader gespecificeerd</span>
                  </td>
                </tr>
                <tr>
                  <th>Contactgegevens</th>
                  <td>
                    <a href="tel:1645645000">1645645000</a> (Tel Werk)</td>
                </tr>
              </tbody>
            </table>
          </div>
        </text>
        <practitioner>
          <reference value="urn:uuid:b3d44558-6acf-11ec-0000-020000000000"/>
          <type value="Practitioner"/>
          <display value="Healthcare professional (person), Peter van Pulver"/>
        </practitioner>
        <organization>
          <reference value="urn:uuid:7fa869d8-6b44-11ec-0000-020000000000"/>
          <type value="Organization"/>
          <display value="Healthcare provider (organization), Huisartsenpraktijk Pulver &amp; Partners"/>
        </organization>
        <specialty>
          <coding>
            <system value="urn:oid:2.16.840.1.113883.2.4.6.7"/>
            <version value="2020-10-23T00:00:00"/>
            <code value="0100"/>
            <display value="Huisartsen, niet nader gespecificeerd"/>
          </coding>
        </specialty>
        <telecom>
          <system value="phone"/>
          <value value="1645645000"/>
          <use value="work"/>
        </telecom>
      </PractitionerRole>
    </resource>
    <request>
      <method value="POST"/>
      <url value="PractitionerRole"/>
    </request>
  </entry>
  <entry>
    <fullUrl value="urn:uuid:b3d44558-6acf-11ec-0000-020000000000"/>
    <resource>
      <Practitioner>
        <meta>
          <profile value="http://nictiz.nl/fhir/StructureDefinition/nl-core-HealthProfessional-Practitioner"/>
        </meta>
        <text>
          <status value="extensions"/>
          <div xmlns="http://www.w3.org/1999/xhtml">
            <div>Id 000001111 (UZI-NR-PERS), Peter van Pulver</div>
            <div>
              <a href="tel:1645645000">1645645000</a> (Tel Werk)</div>
          </div>
        </text>
        <identifier>
          <system value="http://fhir.nl/fhir/NamingSystem/uzi-nr-pers"/>
          <value value="000001111"/>
        </identifier>
        <name>
          <use value="official"/>
          <text value="Peter van Pulver"/>
          <family value="van Pulver">
            <extension url="http://hl7.org/fhir/StructureDefinition/humanname-own-prefix">
              <valueString value="van"/>
            </extension>
            <extension url="http://hl7.org/fhir/StructureDefinition/humanname-own-name">
              <valueString value="Pulver"/>
            </extension>
          </family>
          <given value="Peter">
            <extension url="http://hl7.org/fhir/StructureDefinition/iso21090-EN-qualifier">
              <valueCode value="BR"/>
            </extension>
          </given>
        </name>
        <telecom>
          <system value="phone"/>
          <value value="1645645000"/>
          <use value="work"/>
        </telecom>
      </Practitioner>
    </resource>
    <request>
      <method value="POST"/>
      <url value="Practitioner"/>
    </request>
  </entry>
  <entry>
    <fullUrl value="urn:uuid:7fa869d8-6b44-11ec-0000-020000000000"/>
    <resource>
      <Organization>
        <meta>
          <profile value="http://nictiz.nl/fhir/StructureDefinition/nl-core-HealthcareProvider-Organization"/>
        </meta>
        <text>
          <status value="extensions"/>
          <div xmlns="http://www.w3.org/1999/xhtml">
            <table>
              <caption>Organisatie. Id: 00001111 (URA)</caption>
              <tbody>
                <tr>
                  <th>Naam</th>
                  <td>Huisartsenpraktijk Pulver &amp; Partners</td>
                </tr>
                <tr>
                  <th>Adres</th>
                  <td>Dorpsstraat 1, 1234AA Ons Dorp (Werk)</td>
                </tr>
              </tbody>
            </table>
          </div>
        </text>
        <identifier>
          <system value="http://fhir.nl/fhir/NamingSystem/ura"/>
          <value value="00001111"/>
        </identifier>
        <name value="Huisartsenpraktijk Pulver &amp; Partners"/>
        <address>
          <extension url="http://nictiz.nl/fhir/StructureDefinition/ext-AddressInformation.AddressType">
            <valueCodeableConcept>
              <coding>
                <system value="http://terminology.hl7.org/CodeSystem/v3-AddressUse"/>
                <code value="WP"/>
                <display value="Werkadres"/>
              </coding>
            </valueCodeableConcept>
          </extension>
          <use value="work"/>
          <line value="Dorpsstraat 1">
            <extension url="http://hl7.org/fhir/StructureDefinition/iso21090-ADXP-streetName">
              <valueString value="Dorpsstraat"/>
            </extension>
            <extension url="http://hl7.org/fhir/StructureDefinition/iso21090-ADXP-houseNumber">
              <valueString value="1"/>
            </extension>
          </line>
          <city value="Ons Dorp"/>
          <postalCode value="1234AA"/>
        </address>
      </Organization>
    </resource>
    <request>
      <method value="POST"/>
      <url value="Organization"/>
    </request>
  </entry>
  <entry>
    <fullUrl value="urn:uuid:10079464-6b64-11ec-0000-020000000000"/>
    <resource>
      <Organization>
        <meta>
          <profile value="http://nictiz.nl/fhir/StructureDefinition/nl-core-HealthcareProvider-Organization"/>
        </meta>
        <text>
          <status value="extensions"/>
          <div xmlns="http://www.w3.org/1999/xhtml">
            <table>
              <caption>Organisatie. Id: 01236578 (URA)</caption>
              <tbody>
                <tr>
                  <th>Naam</th>
                  <td>Apotheek De Gulle Gaper</td>
                </tr>
                <tr>
                  <th>Adres</th>
                  <td>Dorpsstraat 12 A, 1234AA Ons Dorp (Werk)</td>
                </tr>
              </tbody>
            </table>
          </div>
        </text>
        <identifier>
          <system value="http://fhir.nl/fhir/NamingSystem/ura"/>
          <value value="01236578"/>
        </identifier>
        <name value="Apotheek De Gulle Gaper"/>
        <address>
          <extension url="http://nictiz.nl/fhir/StructureDefinition/ext-AddressInformation.AddressType">
            <valueCodeableConcept>
              <coding>
                <system value="http://terminology.hl7.org/CodeSystem/v3-AddressUse"/>
                <code value="WP"/>
                <display value="Werkadres"/>
              </coding>
            </valueCodeableConcept>
          </extension>
          <use value="work"/>
          <line value="Dorpsstraat 12 A">
            <extension url="http://hl7.org/fhir/StructureDefinition/iso21090-ADXP-streetName">
              <valueString value="Dorpsstraat"/>
            </extension>
            <extension url="http://hl7.org/fhir/StructureDefinition/iso21090-ADXP-houseNumber">
              <valueString value="12"/>
            </extension>
            <extension url="http://hl7.org/fhir/StructureDefinition/iso21090-ADXP-buildingNumberSuffix">
              <valueString value="A"/>
            </extension>
          </line>
          <city value="Ons Dorp"/>
          <postalCode value="1234AA"/>
        </address>
      </Organization>
    </resource>
    <request>
      <method value="POST"/>
      <url value="Organization"/>
    </request>
  </entry>
  <entry>
    <fullUrl value="urn:uuid:8f94fd04-6b68-11ec-0000-020000000000"/>
    <resource>
      <Medication>
        <meta>
          <profile value="http://nictiz.nl/fhir/StructureDefinition/mp-PharmaceuticalProduct"/>
        </meta>
        <text>
          <status value="extensions"/>
          <div xmlns="http://www.w3.org/1999/xhtml">
            <table>
              <tbody>
                <tr>
                  <th>Code</th>
                  <td>
                    <span title="CAPECITABINE TABLET FO 500MG (59366 - G-Standaard PRK)">CAPECITABINE TABLET FO 500MG</span>
                  </td>
                </tr>
              </tbody>
            </table>
          </div>
        </text>
        <code>
          <coding>
            <system value="urn:oid:2.16.840.1.113883.2.4.4.10"/>
            <code value="59366"/>
            <display value="CAPECITABINE TABLET FO 500MG"/>
            <userSelected value="true"/>
          </coding>
          <coding>
            <system value="urn:oid:2.16.840.1.113883.2.4.4.1"/>
            <code value="112984"/>
            <display value="CAPECITABINE TABLET FO 500MG"/>
          </coding>
          <text value="CAPECITABINE TABLET FO 500MG"/>
        </code>
      </Medication>
    </resource>
    <request>
      <method value="POST"/>
      <url value="Medication"/>
    </request>
  </entry>
  <entry>
    <fullUrl value="urn:uuid:ec16dbf4-6b30-11ec-0000-020000000000"/>
    <resource>
      <Observation>
        <meta>
          <profile value="http://nictiz.nl/fhir/StructureDefinition/nl-core-BodyHeight"/>
        </meta>
        <text>
          <status value="extensions"/>
          <div xmlns="http://www.w3.org/1999/xhtml">
            <table>
              <caption>Observatie/bepaling. Subject: Patient, P. XXX_Schut. Categorie: <span title="Vital Signs (vital-signs - http://terminology.hl7.org/CodeSystem/observation-category)">Vital Signs</span>, Status: definitief</caption>
              <tbody>
                <tr>
                  <th>Bepalingdatum/tijd</th>
                  <td>${DATE, T, D, -12}T10:52:45+02:00</td>
                </tr>
                <tr>
                  <th>Code</th>
                  <th>Waarde</th>
                </tr>
                <tr>
                  <td>
                    <span title="Body height (8302-2 - LOINC)">Body height</span>
                  </td>
                  <td>169 cm</td>
                </tr>
              </tbody>
            </table>
          </div>
        </text>
        <status value="final"/>
        <category>
          <coding>
            <system value="http://terminology.hl7.org/CodeSystem/observation-category"/>
            <code value="vital-signs"/>
            <display value="Vital Signs"/>
          </coding>
        </category>
        <code>
          <coding>
            <system value="http://loinc.org"/>
            <code value="8302-2"/>
            <display value="Body height"/>
          </coding>
        </code>
        <subject>
          <reference value="urn:uuid:3ae2f678-6b63-11ec-0000-020000000000"/>
          <type value="Patient"/>
          <display value="Patient, P. XXX_Schut"/>
        </subject>
        <effectiveDateTime value="${DATE, T, D, -12}T10:52:45+02:00"/>
        <valueQuantity>
          <value value="169"/>
          <unit value="cm"/>
          <system value="http://unitsofmeasure.org"/>
          <code value="cm"/>
        </valueQuantity>
      </Observation>
    </resource>
    <request>
      <method value="POST"/>
      <url value="Observation"/>
    </request>
  </entry>
  <entry>
    <fullUrl value="urn:uuid:e37ef83e-6ae7-11ec-0000-020000000000"/>
    <resource>
      <Observation>
        <meta>
          <profile value="http://nictiz.nl/fhir/StructureDefinition/nl-core-BodyWeight"/>
        </meta>
        <text>
          <status value="extensions"/>
          <div xmlns="http://www.w3.org/1999/xhtml">
            <table>
              <caption>Observatie/bepaling. Subject: Patient, P. XXX_Schut. Categorie: <span title="Vital Signs (vital-signs - http://terminology.hl7.org/CodeSystem/observation-category)">Vital Signs</span>, Status: definitief</caption>
              <tbody>
                <tr>
                  <th>Bepalingdatum/tijd</th>
                  <td>${DATE, T, D, -12}T10:55:16+02:00</td>
                </tr>
                <tr>
                  <th>Code</th>
                  <th>Waarde</th>
                </tr>
                <tr>
                  <td>
                    <span title="Body weight (29463-7 - LOINC)">Body weight</span>
                  </td>
                  <td>85 kg</td>
                </tr>
              </tbody>
            </table>
          </div>
        </text>
        <status value="final"/>
        <category>
          <coding>
            <system value="http://terminology.hl7.org/CodeSystem/observation-category"/>
            <code value="vital-signs"/>
            <display value="Vital Signs"/>
          </coding>
        </category>
        <code>
          <coding>
            <system value="http://loinc.org"/>
            <code value="29463-7"/>
            <display value="Body weight"/>
          </coding>
        </code>
        <subject>
          <reference value="urn:uuid:3ae2f678-6b63-11ec-0000-020000000000"/>
          <type value="Patient"/>
          <display value="Patient, P. XXX_Schut"/>
        </subject>
        <effectiveDateTime value="${DATE, T, D, -12}T10:55:16+02:00"/>
        <valueQuantity>
          <value value="85"/>
          <unit value="kg"/>
          <system value="http://unitsofmeasure.org"/>
          <code value="kg"/>
        </valueQuantity>
      </Observation>
    </resource>
    <request>
      <method value="POST"/>
      <url value="Observation"/>
    </request>
  </entry>
</Bundle>
