<Bundle xmlns="http://hl7.org/fhir">
  <id value="lr-slr-KWAL-KC-Scenario4a-KC4a"/>
  <type value="transaction"/>
  <entry>
    <fullUrl value="urn:uuid:baaa84a4-3dbc-11ee-1689-020000000000"/>
    <resource>
      <Observation>
        <meta>
          <profile value="http://nictiz.nl/fhir/StructureDefinition/nl-core-LaboratoryTestResult"/>
        </meta>
        <text>
          <status value="extensions"/>
          <div xmlns="http://www.w3.org/1999/xhtml">
            <table>
              <caption>Observatie/bepaling. Subject: Patient, Patricia XXX_Sacht. Id: 97777 (urn:oid:2.16.840.1.113883.2.4.3.11.999.25.4298.4), Categorie: <span title="Laboratory (laboratory - http://terminology.hl7.org/CodeSystem/observation-category)">Laboratory</span>, Status: definitief<span style="display: block;">Uitvoerende: Healthcare provider (organization), Klinisch chemisch Lab de Erlenmeyer</span>
              </caption>
              <tbody>
                <tr>
                  <th>Bepalingdatum/tijd</th>
                  <td colspan="3">${DATE, T, M, -1}</td>
                </tr>
                <tr>
                  <th>Specimen</th>
                  <td colspan="3">monster</td>
                </tr>
                <tr>
                  <th>Code</th>
                  <th>Waarde</th>
                  <th>Interpretatie</th>
                  <th>Referentiewaarden</th>
                </tr>
                <tr>
                  <td>
                    <span title="Kalium (513 - nhg-tabel-45-diagnostische-bepalingen)">Kalium</span>
                  </td>
                  <td>5.5 mmol/l</td>
                  <td>
                    <span title="boven referentiebereik (281302008 - SNOMED CT)">boven referentiebereik</span>, Boven referentiebereik. </td>
                  <td>
                    <div>3.5 mmol/l - 5.0 mmol/l</div>
                  </td>
                </tr>
              </tbody>
            </table>
          </div>
        </text>
        <extension url="http://nictiz.nl/fhir/StructureDefinition/ext-EdifactReferenceNumber">
          <valueString value="999555"/>
        </extension>
        <identifier>
          <system value="urn:oid:2.16.840.1.113883.2.4.3.11.999.25.4298.4"/>
          <value value="97777"/>
        </identifier>
        <status value="final"/>
        <category>
          <coding>
            <system value="http://terminology.hl7.org/CodeSystem/observation-category"/>
            <code value="laboratory"/>
            <display value="Laboratory"/>
          </coding>
        </category>
        <code>
          <coding>
            <system value="https://referentiemodel.nhg.org/tabellen/nhg-tabel-45-diagnostische-bepalingen"/>
            <code value="513"/>
            <display value="Kalium"/>
          </coding>
        </code>
        <subject>
          <reference value="urn:uuid:baaa844a-3dbc-11ee-1689-020000000000"/>
          <type value="Patient"/>
          <display value="Patient, Patricia XXX_Sacht"/>
        </subject>
        <effectiveDateTime value="${DATE, T, M, -1}"/>
        <performer>
          <reference value="urn:uuid:baaa8468-3dbc-11ee-1689-020000000000"/>
          <type value="Organization"/>
          <display value="Healthcare provider (organization), Klinisch chemisch Lab de Erlenmeyer"/>
        </performer>
        <valueQuantity>
          <value value="5.5"/>
          <unit value="mmol/l"/>
          <system value="http://unitsofmeasure.org"/>
          <code value="mmol/l"/>
        </valueQuantity>
        <interpretation>
          <coding>
            <system value="http://snomed.info/sct"/>
            <code value="281302008"/>
            <display value="boven referentiebereik"/>
          </coding>
          <coding>
            <system value="http://terminology.hl7.org/CodeSystem/v3-ObservationInterpretation"/>
            <code value="H"/>
            <display value="High"/>
          </coding>
        </interpretation>
        <interpretation>
          <text value="Boven referentiebereik. "/>
        </interpretation>
        <specimen>
          <reference value="urn:uuid:baaa84e0-3dbc-11ee-1689-020000000000"/>
          <type value="Specimen"/>
          <display value="monster"/>
        </specimen>
        <referenceRange>
          <low>
            <value value="3.5"/>
            <unit value="mmol/l"/>
            <system value="http://unitsofmeasure.org"/>
            <code value="mmol/l"/>
          </low>
          <high>
            <value value="5.0"/>
            <unit value="mmol/l"/>
            <system value="http://unitsofmeasure.org"/>
            <code value="mmol/l"/>
          </high>
        </referenceRange>
      </Observation>
    </resource>
    <request>
      <method value="POST"/>
      <url value="Observation"/>
    </request>
  </entry>
  <entry>
    <fullUrl value="urn:uuid:baaa84e0-3dbc-11ee-1689-020000000000"/>
    <resource>
      <Specimen>
        <meta>
          <profile value="http://nictiz.nl/fhir/StructureDefinition/nl-core-LaboratoryTestResult.Specimen"/>
        </meta>
        <text>
          <status value="extensions"/>
          <div xmlns="http://www.w3.org/1999/xhtml">
            <table>
              <caption>Specimen. Subject: Patient, Patricia XXX_Sacht. Id: 334 (urn:oid:2.16.840.1.113883.2.4.3.11.999.25.4267.4)</caption>
              <tbody>
                <tr>
                  <th>Type</th>
                  <td>
                    <span title="bloed (119297000 - SNOMED CT)">bloed</span>
                  </td>
                </tr>
                <tr>
                  <th>Inzameling</th>
                  <td>${DATE, T, M, -1}<div>Methode: <span title="afname van arterieel bloed (713143008 - SNOMED CT)">afname van arterieel bloed</span>
                    </div>
                  </td>
                </tr>
                <tr>
                  <th>Container</th>
                  <td/>
                </tr>
              </tbody>
            </table>
          </div>
        </text>
        <identifier>
          <system value="urn:oid:2.16.840.1.113883.2.4.3.11.999.25.4267.4"/>
          <value value="334"/>
        </identifier>
        <type>
          <coding>
            <system value="http://snomed.info/sct"/>
            <code value="119297000"/>
            <display value="bloed"/>
          </coding>
        </type>
        <subject>
          <reference value="urn:uuid:baaa844a-3dbc-11ee-1689-020000000000"/>
          <type value="Patient"/>
          <display value="Patient, Patricia XXX_Sacht"/>
        </subject>
        <collection>
          <collectedDateTime value="${DATE, T, M, -1}"/>
          <method>
            <coding>
              <system value="http://snomed.info/sct"/>
              <code value="713143008"/>
              <display value="afname van arterieel bloed"/>
            </coding>
          </method>
        </collection>
        <container>
          <extension url="http://hl7.org/fhir/StructureDefinition/specimen-sequenceNumber">
            <valueInteger value="2"/>
          </extension>
        </container>
      </Specimen>
    </resource>
    <request>
      <method value="POST"/>
      <url value="Specimen"/>
    </request>
  </entry>
  <entry>
    <fullUrl value="urn:uuid:baaa8468-3dbc-11ee-1689-020000000000"/>
    <resource>
      <Organization>
        <meta>
          <profile value="http://nictiz.nl/fhir/StructureDefinition/nl-core-HealthcareProvider-Organization"/>
        </meta>
        <text>
          <status value="extensions"/>
          <div xmlns="http://www.w3.org/1999/xhtml">
            <table>
              <caption>Organisatie. Id: 00003335 (URA)</caption>
              <tbody>
                <tr>
                  <th>Naam</th>
                  <td>Klinisch chemisch Lab de Erlenmeyer</td>
                </tr>
                <tr>
                  <th>Type</th>
                  <td>
                    <span title="Laboratorium (L1 - organization-type)">Laboratorium</span>
                  </td>
                </tr>
                <tr>
                  <th>Contactgegevens</th>
                  <td>
                    <a href="tel:06-11122255">06-11122255</a> (Tel)</td>
                </tr>
                <tr>
                  <th>Adres</th>
                  <td>Kerkstraat 101 A, 2143BB Zorgstad (Werk)</td>
                </tr>
              </tbody>
            </table>
          </div>
        </text>
        <identifier>
          <system value="http://fhir.nl/fhir/NamingSystem/ura"/>
          <value value="00003335"/>
        </identifier>
        <type>
          <coding>
            <system value="http://nictiz.nl/fhir/NamingSystem/organization-type"/>
            <version value="2022-07-07T00:00:00"/>
            <code value="L1"/>
            <display value="Laboratorium"/>
          </coding>
        </type>
        <name value="Klinisch chemisch Lab de Erlenmeyer"/>
        <telecom>
          <system value="phone"/>
          <value value="06-11122255"/>
        </telecom>
        <address>
          <extension url="http://nictiz.nl/fhir/StructureDefinition/ext-AddressInformation.AddressType">
            <valueCodeableConcept>
              <coding>
                <system value="http://terminology.hl7.org/CodeSystem/v3-AddressUse"/>
                <code value="WP"/>
                <display value="Werkadres"/>
              </coding>
            </valueCodeableConcept>
          </extension>
          <use value="work"/>
          <line value="Kerkstraat 101 A">
            <extension url="http://hl7.org/fhir/StructureDefinition/iso21090-ADXP-streetName">
              <valueString value="Kerkstraat"/>
            </extension>
            <extension url="http://hl7.org/fhir/StructureDefinition/iso21090-ADXP-houseNumber">
              <valueString value="101"/>
            </extension>
            <extension url="http://hl7.org/fhir/StructureDefinition/iso21090-ADXP-buildingNumberSuffix">
              <valueString value="A"/>
            </extension>
          </line>
          <city value="Zorgstad"/>
          <postalCode value="2143BB"/>
        </address>
      </Organization>
    </resource>
    <request>
      <method value="POST"/>
      <url value="Organization"/>
    </request>
  </entry>
  <entry>
    <fullUrl value="urn:uuid:baaa844a-3dbc-11ee-1689-020000000000"/>
    <resource>
      <Patient>
        <meta>
          <profile value="http://nictiz.nl/fhir/StructureDefinition/nl-core-Patient"/>
        </meta>
        <text>
          <status value="extensions"/>
          <div xmlns="http://www.w3.org/1999/xhtml">
            <div>Id 999901011 (BSN), Patricia XXX_Sacht, Vrouw, 13 november 2000</div>
          </div>
        </text>
        <identifier>
          <system value="http://fhir.nl/fhir/NamingSystem/bsn"/>
          <value value="999901011"/>
        </identifier>
        <name>
          <use value="official"/>
          <text value="Patricia XXX_Sacht"/>
          <family value="XXX_Sacht">
            <extension url="http://hl7.org/fhir/StructureDefinition/humanname-own-name">
              <valueString value="XXX_Sacht"/>
            </extension>
          </family>
          <given value="Patricia">
            <extension url="http://hl7.org/fhir/StructureDefinition/iso21090-EN-qualifier">
              <valueCode value="BR"/>
            </extension>
          </given>
        </name>
        <gender value="female">
          <extension url="http://nictiz.nl/fhir/StructureDefinition/ext-CodeSpecification">
            <valueCodeableConcept>
              <coding>
                <system value="http://terminology.hl7.org/CodeSystem/v3-AdministrativeGender"/>
                <code value="F"/>
                <display value="Vrouw"/>
              </coding>
            </valueCodeableConcept>
          </extension>
        </gender>
        <birthDate value="2000-11-13"/>
      </Patient>
    </resource>
    <request>
      <method value="POST"/>
      <url value="Patient"/>
    </request>
  </entry>
</Bundle>
