<Bundle xmlns="http://hl7.org/fhir">
  <id value="lr-slr-KWAL-KC-LOINC-Scenario3-KCLOINC3"/>
  <type value="transaction"/>
  <entry>
    <fullUrl value="urn:uuid:ba935216-3dbc-11ee-1080-020000000000"/>
    <resource>
      <Observation>
        <meta>
          <profile value="http://nictiz.nl/fhir/StructureDefinition/nl-core-LaboratoryTestResult"/>
        </meta>
        <text>
          <status value="extensions"/>
          <div xmlns="http://www.w3.org/1999/xhtml">
            <table>
              <caption>Observatie/bepaling. Subject: Patient, E. XXX_Doppen. Id: 95555 (urn:oid:2.16.840.1.113883.2.4.3.11.999.25.4298.1), Categorie: <span title="Laboratory (laboratory - http://terminology.hl7.org/CodeSystem/observation-category)">Laboratory</span>, Status: definitief<span style="display: block;">Uitvoerende: Healthcare provider (organization), Trombosedienst Ons Dorp</span>
              </caption>
              <tbody>
                <tr>
                  <th>Bepalingdatum/tijd</th>
                  <td colspan="2">${DATE, T, D, -10}</td>
                </tr>
                <tr>
                  <th>Specimen</th>
                  <td colspan="2">monster</td>
                </tr>
                <tr>
                  <th>Code</th>
                  <th>Waarde</th>
                  <th>Interpretatie</th>
                </tr>
                <tr>
                  <td>
                    <span title="PT-INR [relatieve tijd] in plaatjesarm plasma d.m.v. stollingsmethode (6301-6 - LOINC)">PT-INR [relatieve tijd] in plaatjesarm plasma d.m.v. stollingsmethode</span>
                  </td>
                  <td>2.3</td>
                  <td>
                    <span title="boven referentiebereik (281302008 - SNOMED CT)">boven referentiebereik</span>, Te hoog let op, actie ondernemen.</td>
                </tr>
              </tbody>
            </table>
          </div>
        </text>
        <extension url="http://nictiz.nl/fhir/StructureDefinition/ext-CopyIndicator">
          <valueBoolean value="true"/>
        </extension>
        <extension url="http://nictiz.nl/fhir/StructureDefinition/ext-EdifactReferenceNumber">
          <valueString value="888333"/>
        </extension>
        <identifier>
          <system value="urn:oid:2.16.840.1.113883.2.4.3.11.999.25.4298.1"/>
          <value value="95555"/>
        </identifier>
        <status value="final"/>
        <category>
          <coding>
            <system value="http://terminology.hl7.org/CodeSystem/observation-category"/>
            <code value="laboratory"/>
            <display value="Laboratory"/>
          </coding>
        </category>
        <code>
          <coding>
            <system value="http://loinc.org"/>
            <code value="6301-6"/>
            <display value="PT-INR [relatieve tijd] in plaatjesarm plasma d.m.v. stollingsmethode"/>
          </coding>
        </code>
        <subject>
          <reference value="urn:uuid:ba9351bc-3dbc-11ee-1080-020000000000"/>
          <type value="Patient"/>
          <display value="Patient, E. XXX_Doppen"/>
        </subject>
        <effectiveDateTime value="${DATE, T, D, -10}"/>
        <performer>
          <reference value="urn:uuid:ba9351da-3dbc-11ee-1080-020000000000"/>
          <type value="Organization"/>
          <display value="Healthcare provider (organization), Trombosedienst Ons Dorp"/>
        </performer>
        <valueQuantity>
          <value value="2.3"/>
        </valueQuantity>
        <interpretation>
          <coding>
            <system value="http://snomed.info/sct"/>
            <code value="281302008"/>
            <display value="boven referentiebereik"/>
          </coding>
          <coding>
            <system value="http://terminology.hl7.org/CodeSystem/v3-ObservationInterpretation"/>
            <code value="H"/>
            <display value="High"/>
          </coding>
        </interpretation>
        <interpretation>
          <text value="Te hoog let op, actie ondernemen."/>
        </interpretation>
        <specimen>
          <reference value="urn:uuid:ba935252-3dbc-11ee-1080-020000000000"/>
          <type value="Specimen"/>
          <display value="monster"/>
        </specimen>
      </Observation>
    </resource>
    <request>
      <method value="POST"/>
      <url value="Observation"/>
    </request>
  </entry>
  <entry>
    <fullUrl value="urn:uuid:ba935252-3dbc-11ee-1080-020000000000"/>
    <resource>
      <Specimen>
        <meta>
          <profile value="http://nictiz.nl/fhir/StructureDefinition/nl-core-LaboratoryTestResult.Specimen"/>
        </meta>
        <text>
          <status value="extensions"/>
          <div xmlns="http://www.w3.org/1999/xhtml">
            <table>
              <caption>Specimen. Subject: Patient, E. XXX_Doppen. Id: #1 (urn:oid:2.16.840.1.113883.2.4.3.11.999.25.4267.1)</caption>
              <tbody>
                <tr>
                  <th>Type</th>
                  <td>
                    <span title="Plasma (119361006 - SNOMED CT)">Plasma</span>
                  </td>
                </tr>
                <tr>
                  <th>Inzameling</th>
                  <td>${DATE, T, D, -11}</td>
                </tr>
                <tr>
                  <th>Container</th>
                  <td>
                    <div>Type: <span title="vacuümbuis voor bloedafname met citraat, theofylline, adenosine en dipyramidol (fysiek object) (767387006 - SNOMED CT)">vacuümbuis voor bloedafname met citraat, theofylline, adenosine en dipyramidol (fysiek object)</span>
                    </div>
                  </td>
                </tr>
              </tbody>
            </table>
          </div>
        </text>
        <identifier>
          <system value="urn:oid:2.16.840.1.113883.2.4.3.11.999.25.4267.1"/>
          <value value="#1"/>
        </identifier>
        <type>
          <coding>
            <system value="http://snomed.info/sct"/>
            <code value="119361006"/>
            <display value="Plasma"/>
          </coding>
        </type>
        <subject>
          <reference value="urn:uuid:ba9351bc-3dbc-11ee-1080-020000000000"/>
          <type value="Patient"/>
          <display value="Patient, E. XXX_Doppen"/>
        </subject>
        <collection>
          <collectedDateTime value="${DATE, T, D, -11}"/>
        </collection>
        <container>
          <type>
            <coding>
              <system value="http://snomed.info/sct"/>
              <code value="767387006"/>
              <display value="vacuümbuis voor bloedafname met citraat, theofylline, adenosine en dipyramidol (fysiek object)"/>
            </coding>
          </type>
        </container>
      </Specimen>
    </resource>
    <request>
      <method value="POST"/>
      <url value="Specimen"/>
    </request>
  </entry>
  <entry>
    <fullUrl value="urn:uuid:ba9351da-3dbc-11ee-1080-020000000000"/>
    <resource>
      <Organization>
        <meta>
          <profile value="http://nictiz.nl/fhir/StructureDefinition/nl-core-HealthcareProvider-Organization"/>
        </meta>
        <text>
          <status value="extensions"/>
          <div xmlns="http://www.w3.org/1999/xhtml">
            <table>
              <caption>Organisatie. Id: 11112222 (URA)</caption>
              <tbody>
                <tr>
                  <th>Naam</th>
                  <td>Trombosedienst Ons Dorp</td>
                </tr>
                <tr>
                  <th>Type</th>
                  <td>
                    <span title="Trombosedienst (TD - organization-type)">Trombosedienst</span>
                  </td>
                </tr>
                <tr>
                  <th>Contactgegevens</th>
                  <td>
                    <a href="tel:06-11122266">06-11122266</a> (Tel)</td>
                </tr>
                <tr>
                  <th>Adres</th>
                  <td>Kerkstraat 28 d, 1332GH Ons Dorp</td>
                </tr>
              </tbody>
            </table>
          </div>
        </text>
        <identifier>
          <system value="http://fhir.nl/fhir/NamingSystem/ura"/>
          <value value="11112222"/>
        </identifier>
        <type>
          <coding>
            <system value="http://nictiz.nl/fhir/NamingSystem/organization-type"/>
            <version value="2022-07-07T00:00:00"/>
            <code value="TD"/>
            <display value="Trombosedienst"/>
          </coding>
        </type>
        <name value="Trombosedienst Ons Dorp"/>
        <telecom>
          <system value="phone">
            <extension url="http://nictiz.nl/fhir/StructureDefinition/ext-CodeSpecification">
              <valueCodeableConcept>
                <coding>
                  <system value="http://terminology.hl7.org/CodeSystem/v3-AddressUse"/>
                  <code value="MC"/>
                  <display value="Mobiel telefoonnummer"/>
                </coding>
              </valueCodeableConcept>
            </extension>
          </system>
          <value value="06-11122266"/>
        </telecom>
        <address>
          <line value="Kerkstraat 28 d">
            <extension url="http://hl7.org/fhir/StructureDefinition/iso21090-ADXP-streetName">
              <valueString value="Kerkstraat"/>
            </extension>
            <extension url="http://hl7.org/fhir/StructureDefinition/iso21090-ADXP-houseNumber">
              <valueString value="28"/>
            </extension>
            <extension url="http://hl7.org/fhir/StructureDefinition/iso21090-ADXP-buildingNumberSuffix">
              <valueString value="d"/>
            </extension>
          </line>
          <city value="Ons Dorp"/>
          <postalCode value="1332GH"/>
        </address>
      </Organization>
    </resource>
    <request>
      <method value="POST"/>
      <url value="Organization"/>
    </request>
  </entry>
  <entry>
    <fullUrl value="urn:uuid:ba9351bc-3dbc-11ee-1080-020000000000"/>
    <resource>
      <Patient>
        <meta>
          <profile value="http://nictiz.nl/fhir/StructureDefinition/nl-core-Patient"/>
        </meta>
        <text>
          <status value="extensions"/>
          <div xmlns="http://www.w3.org/1999/xhtml">
            <div>Id 999900511 (BSN), E. XXX_Doppen, Man, 24 oktober 1963</div>
          </div>
        </text>
        <identifier>
          <system value="http://fhir.nl/fhir/NamingSystem/bsn"/>
          <value value="999900511"/>
        </identifier>
        <name>
          <use value="official"/>
          <text value="E. XXX_Doppen"/>
          <family value="XXX_Doppen">
            <extension url="http://hl7.org/fhir/StructureDefinition/humanname-own-name">
              <valueString value="XXX_Doppen"/>
            </extension>
          </family>
          <given value="E.">
            <extension url="http://hl7.org/fhir/StructureDefinition/iso21090-EN-qualifier">
              <valueCode value="IN"/>
            </extension>
          </given>
        </name>
        <gender value="male">
          <extension url="http://nictiz.nl/fhir/StructureDefinition/ext-CodeSpecification">
            <valueCodeableConcept>
              <coding>
                <system value="http://terminology.hl7.org/CodeSystem/v3-AdministrativeGender"/>
                <code value="M"/>
                <display value="Man"/>
              </coding>
            </valueCodeableConcept>
          </extension>
        </gender>
        <birthDate value="1963-10-24"/>
      </Patient>
    </resource>
    <request>
      <method value="POST"/>
      <url value="Patient"/>
    </request>
  </entry>
</Bundle>
