<Bundle xmlns="http://hl7.org/fhir">
  <id value="lr-slr-KWAL-MMB-NHG-Scenario1-MMBNHG1"/>
  <type value="transaction"/>
  <entry>
    <fullUrl value="urn:uuid:bac3cc52-3dbc-11ee-1914-020000000000"/>
    <resource>
      <Observation>
        <meta>
          <profile value="http://nictiz.nl/fhir/StructureDefinition/nl-core-LaboratoryTestResult"/>
        </meta>
        <text>
          <status value="extensions"/>
          <div xmlns="http://www.w3.org/1999/xhtml">
            <table>
              <caption>Observatie/bepaling. Subject: Patient, Patricia XXX_Sacht. Id: 92222 (urn:oid:2.16.840.1.113883.2.4.3.11.999.25.4298.3), Categorie: <span title="Laboratory (laboratory - http://terminology.hl7.org/CodeSystem/observation-category)">Laboratory</span>, Status: definitief<span style="display: block;">Uitvoerende: Healthcare provider (organization), Microbiologisch Lab Flagel</span>
              </caption>
              <tbody>
                <tr>
                  <th>Bepalingdatum/tijd</th>
                  <td>${DATE, T, M, -4}</td>
                </tr>
                <tr>
                  <th>Specimen</th>
                  <td>monster</td>
                </tr>
                <tr>
                  <th>Code</th>
                  <th>Waarde</th>
                </tr>
                <tr>
                  <td>
                    <span title="Herpes simplex v type 1 DNA urine (PCR) (3373 - nhg-tabel-45-diagnostische-bepalingen)">Herpes simplex v type 1 DNA urine (PCR)</span>
                  </td>
                  <td>
                    <span title="negatief (31 - nhg-tabel-45-diagnostische-bepalingen#resultaten)">negatief</span>
                  </td>
                </tr>
              </tbody>
            </table>
          </div>
        </text>
        <extension url="http://nictiz.nl/fhir/StructureDefinition/ext-CopyIndicator">
          <valueBoolean value="true"/>
        </extension>
        <extension url="http://nictiz.nl/fhir/StructureDefinition/ext-EdifactReferenceNumber">
          <valueString value="222222"/>
        </extension>
        <identifier>
          <system value="urn:oid:2.16.840.1.113883.2.4.3.11.999.25.4298.3"/>
          <value value="92222"/>
        </identifier>
        <status value="final"/>
        <category>
          <coding>
            <system value="http://terminology.hl7.org/CodeSystem/observation-category"/>
            <code value="laboratory"/>
            <display value="Laboratory"/>
          </coding>
        </category>
        <code>
          <coding>
            <system value="https://referentiemodel.nhg.org/tabellen/nhg-tabel-45-diagnostische-bepalingen"/>
            <code value="3373"/>
            <display value="Herpes simplex v type 1 DNA urine (PCR)"/>
          </coding>
        </code>
        <subject>
          <reference value="urn:uuid:bac3cbf8-3dbc-11ee-1914-020000000000"/>
          <type value="Patient"/>
          <display value="Patient, Patricia XXX_Sacht"/>
        </subject>
        <effectiveDateTime value="${DATE, T, M, -4}"/>
        <performer>
          <reference value="urn:uuid:bac3cc16-3dbc-11ee-1914-020000000000"/>
          <type value="Organization"/>
          <display value="Healthcare provider (organization), Microbiologisch Lab Flagel"/>
        </performer>
        <valueCodeableConcept>
          <coding>
            <system value="https://referentiemodel.nhg.org/tabellen/nhg-tabel-45-diagnostische-bepalingen#resultaten"/>
            <code value="31"/>
            <display value="negatief"/>
          </coding>
        </valueCodeableConcept>
        <note>
          <text value="D.m.v nucleïnezuur-amplificatie is genoom aangetoond- vanvan herpes simplex virus type 1 en herpes en simplexvirus 2"/>
        </note>
        <specimen>
          <reference value="urn:uuid:bac3ccac-3dbc-11ee-1914-020000000000"/>
          <type value="Specimen"/>
          <display value="monster"/>
        </specimen>
      </Observation>
    </resource>
    <request>
      <method value="POST"/>
      <url value="Observation"/>
    </request>
  </entry>
  <entry>
    <fullUrl value="urn:uuid:bac3cc70-3dbc-11ee-1914-020000000000"/>
    <resource>
      <Observation>
        <meta>
          <profile value="http://nictiz.nl/fhir/StructureDefinition/nl-core-LaboratoryTestResult"/>
        </meta>
        <text>
          <status value="extensions"/>
          <div xmlns="http://www.w3.org/1999/xhtml">
            <table>
              <caption>Observatie/bepaling. Subject: Patient, Patricia XXX_Sacht. Id: 92223 (urn:oid:2.16.840.1.113883.2.4.3.11.999.25.4298.3), Categorie: <span title="Laboratory (laboratory - http://terminology.hl7.org/CodeSystem/observation-category)">Laboratory</span>, Status: definitief<span style="display: block;">Uitvoerende: Healthcare provider (organization), Microbiologisch Lab Flagel</span>
              </caption>
              <tbody>
                <tr>
                  <th>Bepalingdatum/tijd</th>
                  <td colspan="2">${DATE, T, M, -4}</td>
                </tr>
                <tr>
                  <th>Specimen</th>
                  <td colspan="2">monster</td>
                </tr>
                <tr>
                  <th>Code</th>
                  <th>Waarde</th>
                  <th>Interpretatie</th>
                </tr>
                <tr>
                  <td>
                    <span title="Herpes simplex v type 2 DNA urine (PCR) (3382 - nhg-tabel-45-diagnostische-bepalingen)">Herpes simplex v type 2 DNA urine (PCR)</span>
                  </td>
                  <td>
                    <span title="positief (32 - nhg-tabel-45-diagnostische-bepalingen#resultaten)">positief</span>
                  </td>
                  <td>HSV 2 positief getest</td>
                </tr>
              </tbody>
            </table>
          </div>
        </text>
        <extension url="http://nictiz.nl/fhir/StructureDefinition/ext-CopyIndicator">
          <valueBoolean value="true"/>
        </extension>
        <extension url="http://nictiz.nl/fhir/StructureDefinition/ext-EdifactReferenceNumber">
          <valueString value="222222"/>
        </extension>
        <identifier>
          <system value="urn:oid:2.16.840.1.113883.2.4.3.11.999.25.4298.3"/>
          <value value="92223"/>
        </identifier>
        <status value="final"/>
        <category>
          <coding>
            <system value="http://terminology.hl7.org/CodeSystem/observation-category"/>
            <code value="laboratory"/>
            <display value="Laboratory"/>
          </coding>
        </category>
        <code>
          <coding>
            <system value="https://referentiemodel.nhg.org/tabellen/nhg-tabel-45-diagnostische-bepalingen"/>
            <code value="3382"/>
            <display value="Herpes simplex v type 2 DNA urine (PCR)"/>
          </coding>
        </code>
        <subject>
          <reference value="urn:uuid:bac3cbf8-3dbc-11ee-1914-020000000000"/>
          <type value="Patient"/>
          <display value="Patient, Patricia XXX_Sacht"/>
        </subject>
        <effectiveDateTime value="${DATE, T, M, -4}"/>
        <performer>
          <reference value="urn:uuid:bac3cc16-3dbc-11ee-1914-020000000000"/>
          <type value="Organization"/>
          <display value="Healthcare provider (organization), Microbiologisch Lab Flagel"/>
        </performer>
        <valueCodeableConcept>
          <coding>
            <system value="https://referentiemodel.nhg.org/tabellen/nhg-tabel-45-diagnostische-bepalingen#resultaten"/>
            <code value="32"/>
            <display value="positief"/>
          </coding>
        </valueCodeableConcept>
        <interpretation>
          <text value="HSV 2 positief getest"/>
        </interpretation>
        <note>
          <text value="D.m.v nucleïnezuur-amplificatie is genoom aangetoond- vanvan herpes simplex virus type 1 en herpes en simplexvirus 2"/>
        </note>
        <specimen>
          <reference value="urn:uuid:bac3ccac-3dbc-11ee-1914-020000000000"/>
          <type value="Specimen"/>
          <display value="monster"/>
        </specimen>
      </Observation>
    </resource>
    <request>
      <method value="POST"/>
      <url value="Observation"/>
    </request>
  </entry>
  <entry>
    <fullUrl value="urn:uuid:bac3ccac-3dbc-11ee-1914-020000000000"/>
    <resource>
      <Specimen>
        <meta>
          <profile value="http://nictiz.nl/fhir/StructureDefinition/nl-core-LaboratoryTestResult.Specimen"/>
        </meta>
        <text>
          <status value="extensions"/>
          <div xmlns="http://www.w3.org/1999/xhtml">
            <table>
              <caption>Specimen. Subject: Patient, Patricia XXX_Sacht. Id: 100001 (urn:oid:2.16.840.1.113883.2.4.3.11.999.25.4267.3)</caption>
              <tbody>
                <tr>
                  <th>Type</th>
                  <td>
                    <span title="monster van rectum (447955000 - SNOMED CT)">monster van rectum</span>
                  </td>
                </tr>
                <tr>
                  <th>Inzameling</th>
                  <td>${DATE, T, D, -35}<div>Methode: <span title="afnemen van swab (285570007 - SNOMED CT)">afnemen van swab</span>
                    </div>
                  </td>
                </tr>
              </tbody>
            </table>
          </div>
        </text>
        <identifier>
          <system value="urn:oid:2.16.840.1.113883.2.4.3.11.999.25.4267.3"/>
          <value value="100001"/>
        </identifier>
        <type>
          <coding>
            <system value="http://snomed.info/sct"/>
            <code value="447955000"/>
            <display value="monster van rectum"/>
          </coding>
        </type>
        <subject>
          <reference value="urn:uuid:bac3cbf8-3dbc-11ee-1914-020000000000"/>
          <type value="Patient"/>
          <display value="Patient, Patricia XXX_Sacht"/>
        </subject>
        <collection>
          <collectedDateTime value="${DATE, T, D, -35}"/>
          <method>
            <coding>
              <system value="http://snomed.info/sct"/>
              <code value="285570007"/>
              <display value="afnemen van swab"/>
            </coding>
          </method>
        </collection>
      </Specimen>
    </resource>
    <request>
      <method value="POST"/>
      <url value="Specimen"/>
    </request>
  </entry>
  <entry>
    <fullUrl value="urn:uuid:bac3cc16-3dbc-11ee-1914-020000000000"/>
    <resource>
      <Organization>
        <meta>
          <profile value="http://nictiz.nl/fhir/StructureDefinition/nl-core-HealthcareProvider-Organization"/>
        </meta>
        <text>
          <status value="extensions"/>
          <div xmlns="http://www.w3.org/1999/xhtml">
            <table>
              <caption>Organisatie. Id: 00003334 (URA)</caption>
              <tbody>
                <tr>
                  <th>Naam</th>
                  <td>Microbiologisch Lab Flagel</td>
                </tr>
                <tr>
                  <th>Type</th>
                  <td>
                    <span title="Laboratorium (L1 - organization-type)">Laboratorium</span>
                  </td>
                </tr>
                <tr>
                  <th>Contactgegevens</th>
                  <td>
                    <a href="tel:06-11122244">06-11122244</a> (Tel)</td>
                </tr>
                <tr>
                  <th>Adres</th>
                  <td>Kerkstraat 23, 2143BB Zorgstad (Werk)</td>
                </tr>
              </tbody>
            </table>
          </div>
        </text>
        <identifier>
          <system value="http://fhir.nl/fhir/NamingSystem/ura"/>
          <value value="00003334"/>
        </identifier>
        <type>
          <coding>
            <system value="http://nictiz.nl/fhir/NamingSystem/organization-type"/>
            <version value="2022-07-07T00:00:00"/>
            <code value="L1"/>
            <display value="Laboratorium"/>
          </coding>
        </type>
        <name value="Microbiologisch Lab Flagel"/>
        <telecom>
          <system value="phone"/>
          <value value="06-11122244"/>
        </telecom>
        <address>
          <extension url="http://nictiz.nl/fhir/StructureDefinition/ext-AddressInformation.AddressType">
            <valueCodeableConcept>
              <coding>
                <system value="http://terminology.hl7.org/CodeSystem/v3-AddressUse"/>
                <code value="WP"/>
                <display value="Werkadres"/>
              </coding>
            </valueCodeableConcept>
          </extension>
          <use value="work"/>
          <line value="Kerkstraat 23">
            <extension url="http://hl7.org/fhir/StructureDefinition/iso21090-ADXP-streetName">
              <valueString value="Kerkstraat"/>
            </extension>
            <extension url="http://hl7.org/fhir/StructureDefinition/iso21090-ADXP-houseNumber">
              <valueString value="23"/>
            </extension>
          </line>
          <city value="Zorgstad"/>
          <postalCode value="2143BB"/>
        </address>
      </Organization>
    </resource>
    <request>
      <method value="POST"/>
      <url value="Organization"/>
    </request>
  </entry>
  <entry>
    <fullUrl value="urn:uuid:bac3cbf8-3dbc-11ee-1914-020000000000"/>
    <resource>
      <Patient>
        <meta>
          <profile value="http://nictiz.nl/fhir/StructureDefinition/nl-core-Patient"/>
        </meta>
        <text>
          <status value="extensions"/>
          <div xmlns="http://www.w3.org/1999/xhtml">
            <div>Id 999901011 (BSN), Patricia XXX_Sacht, Vrouw, 13 november 2000</div>
          </div>
        </text>
        <identifier>
          <system value="http://fhir.nl/fhir/NamingSystem/bsn"/>
          <value value="999901011"/>
        </identifier>
        <name>
          <use value="official"/>
          <text value="Patricia XXX_Sacht"/>
          <family value="XXX_Sacht">
            <extension url="http://hl7.org/fhir/StructureDefinition/humanname-own-name">
              <valueString value="XXX_Sacht"/>
            </extension>
          </family>
          <given value="Patricia">
            <extension url="http://hl7.org/fhir/StructureDefinition/iso21090-EN-qualifier">
              <valueCode value="BR"/>
            </extension>
          </given>
        </name>
        <gender value="female">
          <extension url="http://nictiz.nl/fhir/StructureDefinition/ext-CodeSpecification">
            <valueCodeableConcept>
              <coding>
                <system value="http://terminology.hl7.org/CodeSystem/v3-AdministrativeGender"/>
                <code value="F"/>
                <display value="Vrouw"/>
              </coding>
            </valueCodeableConcept>
          </extension>
        </gender>
        <birthDate value="2000-11-13"/>
      </Patient>
    </resource>
    <request>
      <method value="POST"/>
      <url value="Patient"/>
    </request>
  </entry>
</Bundle>
