{
  "resourceType": "Bundle",
  "id": "lr-slr-TEST-KC-NHG-Nierfunctie-Scenario1-1",
  "type": "transaction",
  "entry": [ {
    "fullUrl": "urn:uuid:c33f0bd6-6a95-11ec-0000-020000000000",
    "resource": {
      "resourceType": "MedicationRequest",
      "meta": {
        "profile": [ "http://nictiz.nl/fhir/StructureDefinition/mp-MedicationAgreement" ],
        "tag": [ {
          "system": "http://terminology.hl7.org/CodeSystem/common-tags",
          "code": "actionable"
        } ]
      },
      "text": {
        "status": "extensions",
        "div": "<div xmlns=\"http://www.w3.org/1999/xhtml\">\n            <table>\n              <caption>MedicationRequest. Subject: Patient, E. XXX_Doppen. Id: MBH_200_Lengte_Gewicht_MA_1 (urn:oid:2.16.840.1.113883.2.4.3.11.999.77.16076005.1), Categorie: <span title=\"voorschrijven van geneesmiddel (33633005 - SNOMED CT)\">voorschrijven van geneesmiddel</span>, Status: actief<span style=\"display: block;\">Intentie: aanvraag</span>\n                <span style=\"display: block;\">Aangevraagd door: Healthcare professional (role), Peter van Pulver, Huisartsen, niet nader gespecificeerd</span>\n              </caption>\n              <tbody>\n                <tr>\n                  <th>Medicatie</th>\n                  <td>ACETYLSALICYLZUUR TABLETMSR 100MG</td>\n                </tr>\n                <tr>\n                  <th>Gemaakt</th>\n                  <td>${DATE, T, D, +0}T07:05:00+02:00</td>\n                </tr>\n                <tr>\n                  <th>Doseerinstructie</th>\n                  <td>\n                    <div>Timing: <div>eenmalig per dag</div>\n                    </div>\n                    <div>Toedieningsweg: <span title=\"Oraal (9 - G-Standaard thesaurus subtabel 0007)\">Oraal</span>\n                    </div>\n                    <div>Dosering: doseAndRate TODO - Bundle/entry/resource/MedicationRequest/dosageInstruction/doseAndRate</div>\n                  </td>\n                </tr>\n              </tbody>\n            </table>\n          </div>"
      },
      "extension": [ {
        "url": "http://nictiz.nl/fhir/StructureDefinition/ext-RenderedDosageInstruction",
        "valueString": "Vanaf T, 1 maal per dag 1 stuk, Oraal"
      }, {
        "url": "http://nictiz.nl/fhir/StructureDefinition/ext-TimeInterval.Period",
        "valuePeriod": {
          "start": "${DATE, T, D, +0}T00:00:00+02:00"
        }
      }, {
        "url": "http://nictiz.nl/fhir/StructureDefinition/ext-PharmaceuticalTreatment.Identifier",
        "valueIdentifier": {
          "system": "urn:oid:2.16.840.1.113883.2.4.3.11.999.77.1.1",
          "value": "MBH_200_Lengte_Gewicht"
        }
      } ],
      "identifier": [ {
        "system": "urn:oid:2.16.840.1.113883.2.4.3.11.999.77.16076005.1",
        "value": "MBH_200_Lengte_Gewicht_MA_1"
      } ],
      "status": "active",
      "intent": "order",
      "category": [ {
        "coding": [ {
          "system": "http://snomed.info/sct",
          "code": "33633005",
          "display": "voorschrijven van geneesmiddel"
        } ]
      } ],
      "medicationReference": {
        "reference": "urn:uuid:c33f0c12-6a95-11ec-0000-020000000000",
        "type": "Medication",
        "display": "ACETYLSALICYLZUUR TABLETMSR 100MG"
      },
      "subject": {
        "reference": "urn:uuid:c33f0b7c-6a95-11ec-0000-020000000000",
        "type": "Patient",
        "display": "Patient, E. XXX_Doppen"
      },
      "authoredOn": "${DATE, T, D, +0}T07:05:00+02:00",
      "requester": {
        "reference": "urn:uuid:c33f0b9a-6a95-11ec-0000-020000000000",
        "type": "PractitionerRole",
        "display": "Healthcare professional (role), Peter van Pulver, Huisartsen, niet nader gespecificeerd"
      },
      "dosageInstruction": [ {
        "timing": {
          "repeat": {
            "frequency": 1,
            "period": 1,
            "periodUnit": "d"
          }
        },
        "route": {
          "coding": [ {
            "system": "urn:oid:2.16.840.1.113883.2.4.4.9",
            "code": "9",
            "display": "Oraal"
          } ]
        },
        "doseAndRate": [ {
          "doseQuantity": {
            "extension": [ {
              "url": "http://hl7.org/fhir/StructureDefinition/iso21090-PQ-translation",
              "valueQuantity": {
                "value": 1,
                "unit": "stuk",
                "system": "urn:oid:2.16.840.1.113883.2.4.4.1.900.2",
                "code": "245"
              }
            } ],
            "value": 1,
            "unit": "stuk",
            "system": "http://unitsofmeasure.org",
            "code": "1"
          }
        } ]
      } ]
    },
    "request": {
      "method": "POST",
      "url": "MedicationRequest"
    }
  }, {
    "fullUrl": "urn:uuid:c33f0bf4-6a95-11ec-0000-020000000000",
    "resource": {
      "resourceType": "MedicationRequest",
      "meta": {
        "profile": [ "http://nictiz.nl/fhir/StructureDefinition/mp-DispenseRequest" ],
        "tag": [ {
          "system": "http://terminology.hl7.org/CodeSystem/common-tags",
          "code": "actionable"
        } ]
      },
      "text": {
        "status": "extensions",
        "div": "<div xmlns=\"http://www.w3.org/1999/xhtml\">\n            <table>\n              <caption>MedicationRequest. Subject: Patient, E. XXX_Doppen. Id: MBH_200_Lengte_Gewicht_VV_1 (urn:oid:2.16.840.1.113883.2.4.3.11.999.77.52711000146108.1), Categorie: <span title=\"verstrekkingsverzoek (52711000146108 - SNOMED CT)\">verstrekkingsverzoek</span>, Status: actief<span style=\"display: block;\">Intentie: aanvraag</span>\n                <span style=\"display: block;\">Aangevraagd door: Healthcare professional (role), Peter van Pulver, Huisartsen, niet nader gespecificeerd</span>\n              </caption>\n              <tbody>\n                <tr>\n                  <th>Gebaseerd op</th>\n                  <td>relatie naar medicatieafspraak  met identificatie: MBH_200_Lengte_Gewicht_MA_1 || 2.16.840.1.113883.2.4.3.11.999.77.16076005.1 (Id: MBH_200_Lengte_Gewicht_MA_1 (urn:oid:2.16.840.1.113883.2.4.3.11.999.77.16076005.1))</td>\n                </tr>\n                <tr>\n                  <th>Medicatie</th>\n                  <td>ACETYLSALICYLZUUR TABLETMSR 100MG</td>\n                </tr>\n                <tr>\n                  <th>Gemaakt</th>\n                  <td>${DATE, T, D, +0}T07:05:00+02:00</td>\n                </tr>\n                <tr>\n                  <th>Verstrekkingsverzoek</th>\n                  <td>\n                    <div>Hoeveelheid: </div>\n                  </td>\n                </tr>\n              </tbody>\n            </table>\n          </div>"
      },
      "extension": [ {
        "url": "http://nictiz.nl/fhir/StructureDefinition/ext-PharmaceuticalTreatment.Identifier",
        "valueIdentifier": {
          "system": "urn:oid:2.16.840.1.113883.2.4.3.11.999.77.1.1",
          "value": "MBH_200_Lengte_Gewicht"
        }
      } ],
      "identifier": [ {
        "system": "urn:oid:2.16.840.1.113883.2.4.3.11.999.77.52711000146108.1",
        "value": "MBH_200_Lengte_Gewicht_VV_1"
      } ],
      "status": "active",
      "intent": "order",
      "category": [ {
        "coding": [ {
          "system": "http://snomed.info/sct",
          "code": "52711000146108",
          "display": "verstrekkingsverzoek"
        } ]
      } ],
      "medicationReference": {
        "reference": "urn:uuid:c33f0c12-6a95-11ec-0000-020000000000",
        "type": "Medication",
        "display": "ACETYLSALICYLZUUR TABLETMSR 100MG"
      },
      "subject": {
        "reference": "urn:uuid:c33f0b7c-6a95-11ec-0000-020000000000",
        "type": "Patient",
        "display": "Patient, E. XXX_Doppen"
      },
      "authoredOn": "${DATE, T, D, +0}T07:05:00+02:00",
      "requester": {
        "reference": "urn:uuid:c33f0b9a-6a95-11ec-0000-020000000000",
        "type": "PractitionerRole",
        "display": "Healthcare professional (role), Peter van Pulver, Huisartsen, niet nader gespecificeerd"
      },
      "performer": {
        "reference": "urn:uuid:c33f0c6c-6a95-11ec-0000-020000000000",
        "type": "Organization",
        "display": "Healthcare provider (organization), Apotheek De Gulle Gaper"
      },
      "basedOn": [ {
        "type": "MedicationRequest",
        "identifier": {
          "system": "urn:oid:2.16.840.1.113883.2.4.3.11.999.77.16076005.1",
          "value": "MBH_200_Lengte_Gewicht_MA_1"
        },
        "display": "relatie naar medicatieafspraak  met identificatie: MBH_200_Lengte_Gewicht_MA_1 || 2.16.840.1.113883.2.4.3.11.999.77.16076005.1"
      } ],
      "dispenseRequest": {
        "quantity": {
          "extension": [ {
            "url": "http://hl7.org/fhir/StructureDefinition/iso21090-PQ-translation",
            "valueQuantity": {
              "value": 180,
              "unit": "stuk",
              "system": "urn:oid:2.16.840.1.113883.2.4.4.1.900.2",
              "code": "245"
            }
          } ],
          "value": 180,
          "unit": "stuk",
          "system": "http://unitsofmeasure.org",
          "code": "1"
        }
      }
    },
    "request": {
      "method": "POST",
      "url": "MedicationRequest"
    }
  }, {
    "fullUrl": "urn:uuid:6ac75bce-5c3f-11ed-9595-020000000000",
    "resource": {
      "resourceType": "Observation",
      "meta": {
        "profile": [ "http://nictiz.nl/fhir/StructureDefinition/nl-core-LaboratoryTestResult" ]
      },
      "text": {
        "status": "extensions",
        "div": "<div xmlns=\"http://www.w3.org/1999/xhtml\">\n            <table>\n              <caption>Observatie/bepaling. Subject: Patient, E. XXX_Doppen. Id: 11111 (urn:oid:2.16.840.1.113883.2.4.3.11.999.25.4298.2), Categorie: <span title=\"Laboratory (laboratory - http://terminology.hl7.org/CodeSystem/observation-category)\">Laboratory</span>, Status: definitief<span style=\"display: block;\">Uitvoerende: Healthcare provider (organization), Klinisch chemisch Lab 't Proefje</span>\n              </caption>\n              <tbody>\n                <tr>\n                  <th>Bepalingdatum/tijd</th>\n                  <td colspan=\"3\">${DATE, T, D, -20}</td>\n                </tr>\n                <tr>\n                  <th>Specimen</th>\n                  <td colspan=\"3\">monster</td>\n                </tr>\n                <tr>\n                  <th>Code</th>\n                  <th>Waarde</th>\n                  <th>Interpretatie</th>\n                  <th>Referentiewaarden</th>\n                </tr>\n                <tr>\n                  <td>\n                    <span title=\"eGFR volgens CKD-EPI formule (3583 - nhg-tabel-45-diagnostische-bepalingen)\">eGFR volgens CKD-EPI formule</span>\n                  </td>\n                  <td>97 mL/min/{1.73_m2}</td>\n                  <td>Iets bovengemiddeld</td>\n                  <td>\n                    <div>90 mL/min/{1.73_m2} - </div>\n                  </td>\n                </tr>\n              </tbody>\n            </table>\n          </div>"
      },
      "extension": [ {
        "url": "http://nictiz.nl/fhir/StructureDefinition/ext-EdifactReferenceNumber",
        "valueString": "111222"
      } ],
      "identifier": [ {
        "system": "urn:oid:2.16.840.1.113883.2.4.3.11.999.25.4298.2",
        "value": "11111"
      } ],
      "status": "final",
      "category": [ {
        "coding": [ {
          "system": "http://terminology.hl7.org/CodeSystem/observation-category",
          "code": "laboratory",
          "display": "Laboratory"
        } ]
      } ],
      "code": {
        "coding": [ {
          "system": "https://referentiemodel.nhg.org/tabellen/nhg-tabel-45-diagnostische-bepalingen",
          "code": "3583",
          "display": "eGFR volgens CKD-EPI formule"
        } ]
      },
      "subject": {
        "reference": "urn:uuid:c33f0b7c-6a95-11ec-0000-020000000000",
        "type": "Patient",
        "display": "Patient, E. XXX_Doppen"
      },
      "effectiveDateTime": "${DATE, T, D, -20}",
      "performer": [ {
        "reference": "urn:uuid:6ac75c28-5c3f-11ed-9595-020000000000",
        "type": "Organization",
        "display": "Healthcare provider (organization), Klinisch chemisch Lab 't Proefje"
      } ],
      "valueQuantity": {
        "value": 97,
        "unit": "mL/min/{1.73_m2}",
        "system": "http://unitsofmeasure.org",
        "code": "mL/min/{1.73_m2}"
      },
      "interpretation": [ {
        "text": "Iets bovengemiddeld"
      } ],
      "specimen": {
        "reference": "urn:uuid:6ac75bb0-5c3f-11ed-9595-020000000000",
        "type": "Specimen",
        "display": "monster"
      },
      "referenceRange": [ {
        "low": {
          "value": 90,
          "unit": "mL/min/{1.73_m2}",
          "system": "http://unitsofmeasure.org",
          "code": "mL/min/{1.73_m2}"
        }
      } ]
    },
    "request": {
      "method": "POST",
      "url": "Observation"
    }
  }, {
    "fullUrl": "urn:uuid:6ac75bec-5c3f-11ed-9595-020000000000",
    "resource": {
      "resourceType": "Observation",
      "meta": {
        "profile": [ "http://nictiz.nl/fhir/StructureDefinition/nl-core-LaboratoryTestResult" ]
      },
      "text": {
        "status": "extensions",
        "div": "<div xmlns=\"http://www.w3.org/1999/xhtml\">\n            <table>\n              <caption>Observatie/bepaling. Subject: Patient, E. XXX_Doppen. Id: 22222 (urn:oid:2.16.840.1.113883.2.4.3.11.999.25.4298.2), Categorie: <span title=\"Laboratory (laboratory - http://terminology.hl7.org/CodeSystem/observation-category)\">Laboratory</span>, Status: definitief<span style=\"display: block;\">Uitvoerende: Healthcare provider (organization), Klinisch chemisch Lab 't Proefje</span>\n              </caption>\n              <tbody>\n                <tr>\n                  <th>Bepalingdatum/tijd</th>\n                  <td colspan=\"3\">${DATE, T, D, -20}</td>\n                </tr>\n                <tr>\n                  <th>Methode</th>\n                  <td colspan=\"3\">\n                    <span title=\"enzyme method (258026004 - SNOMED CT)\">enzyme method</span>\n                  </td>\n                </tr>\n                <tr>\n                  <th>Specimen</th>\n                  <td colspan=\"3\">monster</td>\n                </tr>\n                <tr>\n                  <th>Code</th>\n                  <th>Waarde</th>\n                  <th>Interpretatie</th>\n                  <th>Referentiewaarden</th>\n                </tr>\n                <tr>\n                  <td>\n                    <span title=\"creatinine (523 - nhg-tabel-45-diagnostische-bepalingen)\">creatinine</span>\n                  </td>\n                  <td>135 umol/l</td>\n                  <td>\n                    <span title=\"boven referentiebereik (281302008 - SNOMED CT)\">boven referentiebereik</span>, Creatinine iets hoger dan normaal.</td>\n                  <td>\n                    <div>60 umol/l - 110 umol/l</div>\n                  </td>\n                </tr>\n              </tbody>\n            </table>\n          </div>"
      },
      "extension": [ {
        "url": "http://nictiz.nl/fhir/StructureDefinition/ext-EdifactReferenceNumber",
        "valueString": "111222"
      } ],
      "identifier": [ {
        "system": "urn:oid:2.16.840.1.113883.2.4.3.11.999.25.4298.2",
        "value": "22222"
      } ],
      "status": "final",
      "category": [ {
        "coding": [ {
          "system": "http://terminology.hl7.org/CodeSystem/observation-category",
          "code": "laboratory",
          "display": "Laboratory"
        } ]
      } ],
      "code": {
        "coding": [ {
          "system": "https://referentiemodel.nhg.org/tabellen/nhg-tabel-45-diagnostische-bepalingen",
          "code": "523",
          "display": "creatinine"
        } ]
      },
      "subject": {
        "reference": "urn:uuid:c33f0b7c-6a95-11ec-0000-020000000000",
        "type": "Patient",
        "display": "Patient, E. XXX_Doppen"
      },
      "effectiveDateTime": "${DATE, T, D, -20}",
      "performer": [ {
        "reference": "urn:uuid:6ac75c28-5c3f-11ed-9595-020000000000",
        "type": "Organization",
        "display": "Healthcare provider (organization), Klinisch chemisch Lab 't Proefje"
      } ],
      "valueQuantity": {
        "value": 135,
        "unit": "umol/l",
        "system": "http://unitsofmeasure.org",
        "code": "umol/l"
      },
      "interpretation": [ {
        "coding": [ {
          "system": "http://snomed.info/sct",
          "code": "281302008",
          "display": "boven referentiebereik"
        }, {
          "system": "http://terminology.hl7.org/CodeSystem/v3-ObservationInterpretation",
          "code": "H",
          "display": "High"
        } ]
      }, {
        "text": "Creatinine iets hoger dan normaal."
      } ],
      "method": {
        "coding": [ {
          "system": "http://snomed.info/sct",
          "code": "258026004",
          "display": "enzyme method"
        } ]
      },
      "specimen": {
        "reference": "urn:uuid:6ac75bb0-5c3f-11ed-9595-020000000000",
        "type": "Specimen",
        "display": "monster"
      },
      "referenceRange": [ {
        "low": {
          "value": 60,
          "unit": "umol/l",
          "system": "http://unitsofmeasure.org",
          "code": "umol/l"
        },
        "high": {
          "value": 110,
          "unit": "umol/l",
          "system": "http://unitsofmeasure.org",
          "code": "umol/l"
        }
      } ]
    },
    "request": {
      "method": "POST",
      "url": "Observation"
    }
  }, {
    "fullUrl": "urn:uuid:6ac75bb0-5c3f-11ed-9595-020000000000",
    "resource": {
      "resourceType": "Specimen",
      "meta": {
        "profile": [ "http://nictiz.nl/fhir/StructureDefinition/nl-core-LaboratoryTestResult.Specimen" ]
      },
      "text": {
        "status": "extensions",
        "div": "<div xmlns=\"http://www.w3.org/1999/xhtml\">\n            <table>\n              <caption>Specimen. Subject: Patient, E. XXX_Doppen. Id: 1111 (urn:oid:2.16.840.1.113883.2.4.3.11.999.25.4267.2)</caption>\n              <tfoot>\n                <tr>\n                  <td colspan=\"2\">Serum afgenomen bij patiënt.</td>\n                </tr>\n              </tfoot>\n              <tbody>\n                <tr>\n                  <th>Inzameling</th>\n                  <td>${DATE, T, D, -20}</td>\n                </tr>\n              </tbody>\n            </table>\n          </div>"
      },
      "identifier": [ {
        "system": "urn:oid:2.16.840.1.113883.2.4.3.11.999.25.4267.2",
        "value": "1111"
      } ],
      "subject": {
        "reference": "urn:uuid:c33f0b7c-6a95-11ec-0000-020000000000",
        "type": "Patient",
        "display": "Patient, E. XXX_Doppen"
      },
      "collection": {
        "collectedDateTime": "${DATE, T, D, -20}"
      },
      "note": [ {
        "text": "Serum afgenomen bij patiënt."
      } ]
    },
    "request": {
      "method": "POST",
      "url": "Specimen"
    }
  }, {
    "fullUrl": "urn:uuid:c33f0b7c-6a95-11ec-0000-020000000000",
    "resource": {
      "resourceType": "Patient",
      "meta": {
        "profile": [ "http://nictiz.nl/fhir/StructureDefinition/nl-core-Patient" ]
      },
      "text": {
        "status": "extensions",
        "div": "<div xmlns=\"http://www.w3.org/1999/xhtml\">\n            <div>Id 999900511 (BSN), <span title=\"Naamsamenstelling: Eigennaam\">E. XXX_Doppen</span>, Man, 24 oktober 1963</div>\n          </div>"
      },
      "identifier": [ {
        "system": "http://fhir.nl/fhir/NamingSystem/bsn",
        "value": "999900511"
      } ],
      "name": [ {
        "extension": [ {
          "url": "http://hl7.org/fhir/StructureDefinition/humanname-assembly-order",
          "valueCode": "NL1"
        } ],
        "use": "official",
        "text": "E. XXX_Doppen",
        "family": "XXX_Doppen",
        "_family": {
          "extension": [ {
            "url": "http://hl7.org/fhir/StructureDefinition/humanname-own-name",
            "valueString": "XXX_Doppen"
          } ]
        },
        "given": [ "E." ],
        "_given": [ {
          "extension": [ {
            "url": "http://hl7.org/fhir/StructureDefinition/iso21090-EN-qualifier",
            "valueCode": "IN"
          } ]
        } ]
      } ],
      "gender": "male",
      "_gender": {
        "extension": [ {
          "url": "http://nictiz.nl/fhir/StructureDefinition/ext-CodeSpecification",
          "valueCodeableConcept": {
            "coding": [ {
              "system": "http://terminology.hl7.org/CodeSystem/v3-AdministrativeGender",
              "code": "M",
              "display": "Man"
            } ]
          }
        } ]
      },
      "birthDate": "1963-10-24"
    },
    "request": {
      "method": "POST",
      "url": "Patient"
    }
  }, {
    "fullUrl": "urn:uuid:c33f0b9a-6a95-11ec-0000-020000000000",
    "resource": {
      "resourceType": "PractitionerRole",
      "meta": {
        "profile": [ "http://nictiz.nl/fhir/StructureDefinition/nl-core-HealthProfessional-PractitionerRole" ]
      },
      "text": {
        "status": "extensions",
        "div": "<div xmlns=\"http://www.w3.org/1999/xhtml\">\n            <table>\n              <caption>Zorgverlenerrol. </caption>\n              <tbody>\n                <tr>\n                  <th>Zorgverlener</th>\n                  <td>\n                    <div>Healthcare professional (person), Peter van Pulver</div>\n                    <div>Healthcare provider (organization), Huisartsenpraktijk Pulver &amp; Partners</div>\n                  </td>\n                </tr>\n                <tr>\n                  <th>Specialisme</th>\n                  <td>\n                    <span title=\"Huisartsen, niet nader gespecificeerd (0100 - AGB-medisch specialisme)\">Huisartsen, niet nader gespecificeerd</span>\n                  </td>\n                </tr>\n                <tr>\n                  <th>Contactgegevens</th>\n                  <td>\n                    <a href=\"tel:1645645000\">1645645000</a> (Tel Werk)</td>\n                </tr>\n              </tbody>\n            </table>\n          </div>"
      },
      "practitioner": {
        "reference": "urn:uuid:c33f0bb8-6a95-11ec-0000-020000000000",
        "type": "Practitioner",
        "display": "Healthcare professional (person), Peter van Pulver"
      },
      "organization": {
        "reference": "urn:uuid:c33f0c30-6a95-11ec-0000-020000000000",
        "type": "Organization",
        "display": "Healthcare provider (organization), Huisartsenpraktijk Pulver & Partners"
      },
      "specialty": [ {
        "coding": [ {
          "system": "urn:oid:2.16.840.1.113883.2.4.6.7",
          "version": "2020-10-23T00:00:00",
          "code": "0100",
          "display": "Huisartsen, niet nader gespecificeerd"
        } ]
      } ],
      "telecom": [ {
        "system": "phone",
        "value": "1645645000",
        "use": "work"
      } ]
    },
    "request": {
      "method": "POST",
      "url": "PractitionerRole"
    }
  }, {
    "fullUrl": "urn:uuid:c33f0bb8-6a95-11ec-0000-020000000000",
    "resource": {
      "resourceType": "Practitioner",
      "meta": {
        "profile": [ "http://nictiz.nl/fhir/StructureDefinition/nl-core-HealthProfessional-Practitioner" ]
      },
      "text": {
        "status": "extensions",
        "div": "<div xmlns=\"http://www.w3.org/1999/xhtml\">\n            <div>Id 000001111 (UZI-NR-PERS), Peter van Pulver</div>\n            <div>\n              <a href=\"tel:1645645000\">1645645000</a> (Tel Werk)</div>\n          </div>"
      },
      "identifier": [ {
        "system": "http://fhir.nl/fhir/NamingSystem/uzi-nr-pers",
        "value": "000001111"
      } ],
      "name": [ {
        "use": "official",
        "text": "Peter van Pulver",
        "family": "van Pulver",
        "_family": {
          "extension": [ {
            "url": "http://hl7.org/fhir/StructureDefinition/humanname-own-prefix",
            "valueString": "van"
          }, {
            "url": "http://hl7.org/fhir/StructureDefinition/humanname-own-name",
            "valueString": "Pulver"
          } ]
        },
        "given": [ "Peter" ],
        "_given": [ {
          "extension": [ {
            "url": "http://hl7.org/fhir/StructureDefinition/iso21090-EN-qualifier",
            "valueCode": "BR"
          } ]
        } ]
      } ],
      "telecom": [ {
        "system": "phone",
        "value": "1645645000",
        "use": "work"
      } ]
    },
    "request": {
      "method": "POST",
      "url": "Practitioner"
    }
  }, {
    "fullUrl": "urn:uuid:c33f0c30-6a95-11ec-0000-020000000000",
    "resource": {
      "resourceType": "Organization",
      "meta": {
        "profile": [ "http://nictiz.nl/fhir/StructureDefinition/nl-core-HealthcareProvider-Organization" ]
      },
      "text": {
        "status": "extensions",
        "div": "<div xmlns=\"http://www.w3.org/1999/xhtml\">\n            <table>\n              <caption>Organisatie. Id: 00001111 (URA)</caption>\n              <tbody>\n                <tr>\n                  <th>Naam</th>\n                  <td>Huisartsenpraktijk Pulver &amp; Partners</td>\n                </tr>\n                <tr>\n                  <th>Adres</th>\n                  <td>Dorpsstraat 1, 1234AA Ons Dorp (Werk)</td>\n                </tr>\n              </tbody>\n            </table>\n          </div>"
      },
      "identifier": [ {
        "system": "http://fhir.nl/fhir/NamingSystem/ura",
        "value": "00001111"
      } ],
      "name": "Huisartsenpraktijk Pulver & Partners",
      "address": [ {
        "extension": [ {
          "url": "http://nictiz.nl/fhir/StructureDefinition/ext-AddressInformation.AddressType",
          "valueCodeableConcept": {
            "coding": [ {
              "system": "http://terminology.hl7.org/CodeSystem/v3-AddressUse",
              "code": "WP",
              "display": "Werkadres"
            } ]
          }
        } ],
        "use": "work",
        "line": [ "Dorpsstraat 1" ],
        "_line": [ {
          "extension": [ {
            "url": "http://hl7.org/fhir/StructureDefinition/iso21090-ADXP-streetName",
            "valueString": "Dorpsstraat"
          }, {
            "url": "http://hl7.org/fhir/StructureDefinition/iso21090-ADXP-houseNumber",
            "valueString": "1"
          } ]
        } ],
        "city": "Ons Dorp",
        "postalCode": "1234AA"
      } ]
    },
    "request": {
      "method": "POST",
      "url": "Organization"
    }
  }, {
    "fullUrl": "urn:uuid:c33f0c6c-6a95-11ec-0000-020000000000",
    "resource": {
      "resourceType": "Organization",
      "meta": {
        "profile": [ "http://nictiz.nl/fhir/StructureDefinition/nl-core-HealthcareProvider-Organization" ]
      },
      "text": {
        "status": "extensions",
        "div": "<div xmlns=\"http://www.w3.org/1999/xhtml\">\n            <table>\n              <caption>Organisatie. Id: 01236578 (URA)</caption>\n              <tbody>\n                <tr>\n                  <th>Naam</th>\n                  <td>Apotheek De Gulle Gaper</td>\n                </tr>\n              </tbody>\n            </table>\n          </div>"
      },
      "identifier": [ {
        "system": "http://fhir.nl/fhir/NamingSystem/ura",
        "value": "01236578"
      } ],
      "name": "Apotheek De Gulle Gaper"
    },
    "request": {
      "method": "POST",
      "url": "Organization"
    }
  }, {
    "fullUrl": "urn:uuid:6ac75c28-5c3f-11ed-9595-020000000000",
    "resource": {
      "resourceType": "Organization",
      "meta": {
        "profile": [ "http://nictiz.nl/fhir/StructureDefinition/nl-core-HealthcareProvider-Organization" ]
      },
      "text": {
        "status": "extensions",
        "div": "<div xmlns=\"http://www.w3.org/1999/xhtml\">\n            <table>\n              <caption>Organisatie. Id: 00003333 (URA)</caption>\n              <tbody>\n                <tr>\n                  <th>Naam</th>\n                  <td>Klinisch chemisch Lab 't Proefje</td>\n                </tr>\n                <tr>\n                  <th>Type</th>\n                  <td>\n                    <span title=\"Laboratorium (L1 - organization-type)\">Laboratorium</span>\n                  </td>\n                </tr>\n                <tr>\n                  <th>Contactgegevens</th>\n                  <td>\n                    <a href=\"tel:06-11122233\">06-11122233</a> (Tel Werk)<br/>\n                    <a href=\"mailto:tproefje@lab.nl\">tproefje@lab.nl</a> (E-mail Werk)<br/>\n                  </td>\n                </tr>\n                <tr>\n                  <th>Adres</th>\n                  <td>Hoofdstraat 23, 1234AA Zorgstad (Werk)</td>\n                </tr>\n              </tbody>\n            </table>\n          </div>"
      },
      "identifier": [ {
        "system": "http://fhir.nl/fhir/NamingSystem/ura",
        "value": "00003333"
      } ],
      "type": [ {
        "coding": [ {
          "system": "http://nictiz.nl/fhir/NamingSystem/organization-type",
          "version": "2022-07-07T00:00:00",
          "code": "L1",
          "display": "Laboratorium"
        } ]
      } ],
      "name": "Klinisch chemisch Lab 't Proefje",
      "telecom": [ {
        "extension": [ {
          "url": "http://nictiz.nl/fhir/StructureDefinition/ext-Comment",
          "valueString": "Bel met vragen"
        } ],
        "system": "phone",
        "value": "06-11122233",
        "use": "work"
      }, {
        "system": "email",
        "value": "tproefje@lab.nl",
        "use": "work"
      } ],
      "address": [ {
        "extension": [ {
          "url": "http://nictiz.nl/fhir/StructureDefinition/ext-AddressInformation.AddressType",
          "valueCodeableConcept": {
            "coding": [ {
              "system": "http://terminology.hl7.org/CodeSystem/v3-AddressUse",
              "code": "WP",
              "display": "Werkadres"
            } ]
          }
        } ],
        "use": "work",
        "line": [ "Hoofdstraat 23" ],
        "_line": [ {
          "extension": [ {
            "url": "http://hl7.org/fhir/StructureDefinition/iso21090-ADXP-streetName",
            "valueString": "Hoofdstraat"
          }, {
            "url": "http://hl7.org/fhir/StructureDefinition/iso21090-ADXP-houseNumber",
            "valueString": "23"
          } ]
        } ],
        "city": "Zorgstad",
        "postalCode": "1234AA"
      } ]
    },
    "request": {
      "method": "POST",
      "url": "Organization"
    }
  }, {
    "fullUrl": "urn:uuid:c33f0c12-6a95-11ec-0000-020000000000",
    "resource": {
      "resourceType": "Medication",
      "meta": {
        "profile": [ "http://nictiz.nl/fhir/StructureDefinition/nl-core-PharmaceuticalProduct" ]
      },
      "text": {
        "status": "extensions",
        "div": "<div xmlns=\"http://www.w3.org/1999/xhtml\">\n            <table>\n              <tbody>\n                <tr>\n                  <th>Code</th>\n                  <td>\n                    <span title=\"ACETYLSALICYLZUUR TABLETMSR 100MG (49484 - G-Standaard PRK)\">ACETYLSALICYLZUUR TABLETMSR 100MG</span>\n                  </td>\n                </tr>\n              </tbody>\n            </table>\n          </div>"
      },
      "code": {
        "coding": [ {
          "system": "urn:oid:2.16.840.1.113883.2.4.4.10",
          "code": "49484",
          "display": "ACETYLSALICYLZUUR TABLETMSR 100MG",
          "userSelected": true
        }, {
          "system": "urn:oid:2.16.840.1.113883.2.4.4.1",
          "code": "103039",
          "display": "ACETYLSALICYLZUUR TABLETMSR 100MG"
        } ],
        "text": "ACETYLSALICYLZUUR TABLETMSR 100MG"
      }
    },
    "request": {
      "method": "POST",
      "url": "Medication"
    }
  } ]
}