<Bundle xmlns="http://hl7.org/fhir">
  <id value="lr-slr-TEST-KC-LOINC-Nierfunctie-Scenario2-2"/>
  <type value="transaction"/>
  <entry>
    <fullUrl value="urn:uuid:6ac19a7c-5c3f-11ed-1944-020000000000"/>
    <resource>
      <Observation>
        <meta>
          <profile value="http://nictiz.nl/fhir/StructureDefinition/nl-core-LaboratoryTestResult"/>
        </meta>
        <text>
          <status value="extensions"/>
          <div xmlns="http://www.w3.org/1999/xhtml">
            <table>
              <caption>Observatie/bepaling. Subject: Patient, E. XXX_Doppen. Id: LAR_NierfunctiePanelLOINC (urn:oid:2.16.840.1.113883.2.4.3.11.999.25.4296.2), Categorie: <span title="Laboratory (laboratory - http://terminology.hl7.org/CodeSystem/observation-category)">Laboratory</span>, Status: definitief<span style="display: block;">Uitvoerende: Healthcare provider (organization), Klinisch chemisch Lab 't Proefje</span>
              </caption>
              <tbody>
                <tr>
                  <th>Specimen</th>
                  <td>monster</td>
                </tr>
                <tr>
                  <th>Code</th>
                  <th>Waarde</th>
                </tr>
                <tr>
                  <td>
                    <span title="creatinine &amp; glomerulaire filtratiesnelheid.voorspeld panel (45066-8 - LOINC)">creatinine &amp; glomerulaire filtratiesnelheid.voorspeld panel</span>
                  </td>
                  <td/>
                </tr>
              </tbody>
            </table>
          </div>
        </text>
        <extension url="http://nictiz.nl/fhir/StructureDefinition/ext-CopyIndicator">
          <valueBoolean value="true"/>
        </extension>
        <extension url="http://nictiz.nl/fhir/StructureDefinition/ext-EdifactReferenceNumber">
          <valueString value="111222"/>
        </extension>
        <identifier>
          <system value="urn:oid:2.16.840.1.113883.2.4.3.11.999.25.4296.2"/>
          <value value="LAR_NierfunctiePanelLOINC"/>
        </identifier>
        <status value="final"/>
        <category>
          <coding>
            <system value="http://terminology.hl7.org/CodeSystem/observation-category"/>
            <code value="laboratory"/>
            <display value="Laboratory"/>
          </coding>
        </category>
        <code>
          <coding>
            <system value="http://loinc.org"/>
            <code value="45066-8"/>
            <display value="creatinine &amp; glomerulaire filtratiesnelheid.voorspeld panel"/>
          </coding>
        </code>
        <subject>
          <reference value="urn:uuid:6ac19a04-5c3f-11ed-1944-020000000000"/>
          <type value="Patient"/>
          <display value="Patient, E. XXX_Doppen"/>
        </subject>
        <performer>
          <reference value="urn:uuid:6ac19a9a-5c3f-11ed-1944-020000000000"/>
          <type value="Organization"/>
          <display value="Healthcare provider (organization), Klinisch chemisch Lab 't Proefje"/>
        </performer>
        <specimen>
          <reference value="urn:uuid:6ac19a22-5c3f-11ed-1944-020000000000"/>
          <type value="Specimen"/>
          <display value="monster"/>
        </specimen>
        <hasMember>
          <reference value="urn:uuid:6ac19a40-5c3f-11ed-1944-020000000000"/>
          <type value="Observation"/>
          <display value="laboratorium_test"/>
        </hasMember>
        <hasMember>
          <reference value="urn:uuid:6ac19a5e-5c3f-11ed-1944-020000000000"/>
          <type value="Observation"/>
          <display value="laboratorium_test"/>
        </hasMember>
      </Observation>
    </resource>
    <request>
      <method value="POST"/>
      <url value="Observation"/>
    </request>
  </entry>
  <entry>
    <fullUrl value="urn:uuid:6ac19a40-5c3f-11ed-1944-020000000000"/>
    <resource>
      <Observation>
        <meta>
          <profile value="http://nictiz.nl/fhir/StructureDefinition/nl-core-LaboratoryTestResult"/>
        </meta>
        <text>
          <status value="extensions"/>
          <div xmlns="http://www.w3.org/1999/xhtml">
            <table>
              <caption>Observatie/bepaling. Subject: Patient, E. XXX_Doppen. Id: 11111 (urn:oid:2.16.840.1.113883.2.4.3.11.999.25.4298.2), Categorie: <span title="Laboratory (laboratory - http://terminology.hl7.org/CodeSystem/observation-category)">Laboratory</span>, Status: definitief<span style="display: block;">Uitvoerende: Healthcare provider (organization), Klinisch chemisch Lab 't Proefje</span>
              </caption>
              <tbody>
                <tr>
                  <th>Bepalingdatum/tijd</th>
                  <td colspan="3">${DATE, T, D, -20}</td>
                </tr>
                <tr>
                  <th>Specimen</th>
                  <td colspan="3">monster</td>
                </tr>
                <tr>
                  <th>Code</th>
                  <th>Waarde</th>
                  <th>Interpretatie</th>
                  <th>Referentiewaarden</th>
                </tr>
                <tr>
                  <td>
                    <span title="Glomerulaire filtratiesnelheid/1,73 m2.voorspeld [filtratiesnelheid/oppervlakte] in serum of plasma of bloed d.m.v. formule gebaseerd op creatinine (CKD-EPI 2021) (98979-8 - LOINC)">Glomerulaire filtratiesnelheid/1,73 m2.voorspeld [filtratiesnelheid/oppervlakte] in serum of plasma of bloed d.m.v. formule gebaseerd op creatinine (CKD-EPI 2021)</span>
                  </td>
                  <td>97 mL/min/{1.73_m2}</td>
                  <td>Waarde is goed.</td>
                  <td>
                    <div>90 mL/min/{1.73_m2} - </div>
                  </td>
                </tr>
              </tbody>
            </table>
          </div>
        </text>
        <extension url="http://nictiz.nl/fhir/StructureDefinition/ext-CopyIndicator">
          <valueBoolean value="true"/>
        </extension>
        <extension url="http://nictiz.nl/fhir/StructureDefinition/ext-EdifactReferenceNumber">
          <valueString value="111222"/>
        </extension>
        <identifier>
          <system value="urn:oid:2.16.840.1.113883.2.4.3.11.999.25.4298.2"/>
          <value value="11111"/>
        </identifier>
        <status value="final"/>
        <category>
          <coding>
            <system value="http://terminology.hl7.org/CodeSystem/observation-category"/>
            <code value="laboratory"/>
            <display value="Laboratory"/>
          </coding>
        </category>
        <code>
          <coding>
            <system value="http://loinc.org"/>
            <code value="98979-8"/>
            <display value="Glomerulaire filtratiesnelheid/1,73 m2.voorspeld [filtratiesnelheid/oppervlakte] in serum of plasma of bloed d.m.v. formule gebaseerd op creatinine (CKD-EPI 2021)"/>
          </coding>
        </code>
        <subject>
          <reference value="urn:uuid:6ac19a04-5c3f-11ed-1944-020000000000"/>
          <type value="Patient"/>
          <display value="Patient, E. XXX_Doppen"/>
        </subject>
        <effectiveDateTime value="${DATE, T, D, -20}"/>
        <performer>
          <reference value="urn:uuid:6ac19a9a-5c3f-11ed-1944-020000000000"/>
          <type value="Organization"/>
          <display value="Healthcare provider (organization), Klinisch chemisch Lab 't Proefje"/>
        </performer>
        <valueQuantity>
          <value value="97"/>
          <unit value="mL/min/{1.73_m2}"/>
          <system value="http://unitsofmeasure.org"/>
          <code value="mL/min/{1.73_m2}"/>
        </valueQuantity>
        <interpretation>
          <text value="Waarde is goed."/>
        </interpretation>
        <specimen>
          <reference value="urn:uuid:6ac19a22-5c3f-11ed-1944-020000000000"/>
          <type value="Specimen"/>
          <display value="monster"/>
        </specimen>
        <referenceRange>
          <low>
            <value value="90"/>
            <unit value="mL/min/{1.73_m2}"/>
            <system value="http://unitsofmeasure.org"/>
            <code value="mL/min/{1.73_m2}"/>
          </low>
        </referenceRange>
      </Observation>
    </resource>
    <request>
      <method value="POST"/>
      <url value="Observation"/>
    </request>
  </entry>
  <entry>
    <fullUrl value="urn:uuid:6ac19a5e-5c3f-11ed-1944-020000000000"/>
    <resource>
      <Observation>
        <meta>
          <profile value="http://nictiz.nl/fhir/StructureDefinition/nl-core-LaboratoryTestResult"/>
        </meta>
        <text>
          <status value="extensions"/>
          <div xmlns="http://www.w3.org/1999/xhtml">
            <table>
              <caption>Observatie/bepaling. Subject: Patient, E. XXX_Doppen. Id: 22222 (urn:oid:2.16.840.1.113883.2.4.3.11.999.25.4298.2), Categorie: <span title="Laboratory (laboratory - http://terminology.hl7.org/CodeSystem/observation-category)">Laboratory</span>, Status: definitief<span style="display: block;">Uitvoerende: Healthcare provider (organization), Klinisch chemisch Lab 't Proefje</span>
              </caption>
              <tbody>
                <tr>
                  <th>Bepalingdatum/tijd</th>
                  <td colspan="3">${DATE, T, D, -20}</td>
                </tr>
                <tr>
                  <th>Methode</th>
                  <td colspan="3">
                    <span title="enzyme method (258026004 - SNOMED CT)">enzyme method</span>
                  </td>
                </tr>
                <tr>
                  <th>Specimen</th>
                  <td colspan="3">monster</td>
                </tr>
                <tr>
                  <th>Code</th>
                  <th>Waarde</th>
                  <th>Interpretatie</th>
                  <th>Referentiewaarden</th>
                </tr>
                <tr>
                  <td>
                    <span title="Creatinine [mol/volume] in urine (45066-8 - LOINC)">Creatinine [mol/volume] in urine</span>
                  </td>
                  <td>135 umol/l</td>
                  <td>
                    <span title="boven referentiebereik (281302008 - SNOMED CT)">boven referentiebereik</span>, Creatinine iets hoger dan normaal.</td>
                  <td>
                    <div>62 umol/l - 134 umol/l</div>
                  </td>
                </tr>
              </tbody>
            </table>
          </div>
        </text>
        <extension url="http://nictiz.nl/fhir/StructureDefinition/ext-CopyIndicator">
          <valueBoolean value="true"/>
        </extension>
        <extension url="http://nictiz.nl/fhir/StructureDefinition/ext-EdifactReferenceNumber">
          <valueString value="111222"/>
        </extension>
        <identifier>
          <system value="urn:oid:2.16.840.1.113883.2.4.3.11.999.25.4298.2"/>
          <value value="22222"/>
        </identifier>
        <status value="final"/>
        <category>
          <coding>
            <system value="http://terminology.hl7.org/CodeSystem/observation-category"/>
            <code value="laboratory"/>
            <display value="Laboratory"/>
          </coding>
        </category>
        <code>
          <coding>
            <system value="http://loinc.org"/>
            <code value="45066-8"/>
            <display value="Creatinine [mol/volume] in urine"/>
          </coding>
        </code>
        <subject>
          <reference value="urn:uuid:6ac19a04-5c3f-11ed-1944-020000000000"/>
          <type value="Patient"/>
          <display value="Patient, E. XXX_Doppen"/>
        </subject>
        <effectiveDateTime value="${DATE, T, D, -20}"/>
        <performer>
          <reference value="urn:uuid:6ac19a9a-5c3f-11ed-1944-020000000000"/>
          <type value="Organization"/>
          <display value="Healthcare provider (organization), Klinisch chemisch Lab 't Proefje"/>
        </performer>
        <valueQuantity>
          <value value="135"/>
          <unit value="umol/l"/>
          <system value="http://unitsofmeasure.org"/>
          <code value="umol/l"/>
        </valueQuantity>
        <interpretation>
          <coding>
            <system value="http://snomed.info/sct"/>
            <code value="281302008"/>
            <display value="boven referentiebereik"/>
          </coding>
          <coding>
            <system value="http://terminology.hl7.org/CodeSystem/v3-ObservationInterpretation"/>
            <code value="H"/>
            <display value="High"/>
          </coding>
        </interpretation>
        <interpretation>
          <text value="Creatinine iets hoger dan normaal."/>
        </interpretation>
        <method>
          <coding>
            <system value="http://snomed.info/sct"/>
            <code value="258026004"/>
            <display value="enzyme method"/>
          </coding>
        </method>
        <specimen>
          <reference value="urn:uuid:6ac19a22-5c3f-11ed-1944-020000000000"/>
          <type value="Specimen"/>
          <display value="monster"/>
        </specimen>
        <referenceRange>
          <low>
            <value value="62"/>
            <unit value="umol/l"/>
            <system value="http://unitsofmeasure.org"/>
            <code value="umol/l"/>
          </low>
          <high>
            <value value="134"/>
            <unit value="umol/l"/>
            <system value="http://unitsofmeasure.org"/>
            <code value="umol/l"/>
          </high>
        </referenceRange>
      </Observation>
    </resource>
    <request>
      <method value="POST"/>
      <url value="Observation"/>
    </request>
  </entry>
  <entry>
    <fullUrl value="urn:uuid:6ac19a22-5c3f-11ed-1944-020000000000"/>
    <resource>
      <Specimen>
        <meta>
          <profile value="http://nictiz.nl/fhir/StructureDefinition/nl-core-LaboratoryTestResult.Specimen"/>
        </meta>
        <text>
          <status value="extensions"/>
          <div xmlns="http://www.w3.org/1999/xhtml">
            <table>
              <caption>Specimen. Subject: Patient, E. XXX_Doppen. Id: 123 (urn:oid:2.16.840.1.113883.2.4.3.11.999.25.4267.2)</caption>
              <tfoot>
                <tr>
                  <td colspan="2">Serum afgenomen bij patiënt.</td>
                </tr>
              </tfoot>
              <tbody>
                <tr>
                  <th>Inzameling</th>
                  <td>${DATE, T, D, -20}</td>
                </tr>
              </tbody>
            </table>
          </div>
        </text>
        <identifier>
          <system value="urn:oid:2.16.840.1.113883.2.4.3.11.999.25.4267.2"/>
          <value value="123"/>
        </identifier>
        <subject>
          <reference value="urn:uuid:6ac19a04-5c3f-11ed-1944-020000000000"/>
          <type value="Patient"/>
          <display value="Patient, E. XXX_Doppen"/>
        </subject>
        <collection>
          <collectedDateTime value="${DATE, T, D, -20}"/>
        </collection>
        <note>
          <text value="Serum afgenomen bij patiënt."/>
        </note>
      </Specimen>
    </resource>
    <request>
      <method value="POST"/>
      <url value="Specimen"/>
    </request>
  </entry>
  <entry>
    <fullUrl value="urn:uuid:6ac19a9a-5c3f-11ed-1944-020000000000"/>
    <resource>
      <Organization>
        <meta>
          <profile value="http://nictiz.nl/fhir/StructureDefinition/nl-core-HealthcareProvider-Organization"/>
        </meta>
        <text>
          <status value="extensions"/>
          <div xmlns="http://www.w3.org/1999/xhtml">
            <table>
              <caption>Organisatie. Id: 00003333 (URA)</caption>
              <tbody>
                <tr>
                  <th>Naam</th>
                  <td>Klinisch chemisch Lab 't Proefje</td>
                </tr>
                <tr>
                  <th>Type</th>
                  <td>
                    <span title="Laboratorium (L1 - organization-type)">Laboratorium</span>
                  </td>
                </tr>
                <tr>
                  <th>Contactgegevens</th>
                  <td>
                    <a href="tel:06-11122233">06-11122233</a> (Tel Werk)<br/>
                    <a href="mailto:tproefje@lab.nl">tproefje@lab.nl</a> (E-mail Werk)<br/>
                  </td>
                </tr>
                <tr>
                  <th>Adres</th>
                  <td>Hoofdstraat 23, 1234AA Zorgstad (Werk)</td>
                </tr>
              </tbody>
            </table>
          </div>
        </text>
        <identifier>
          <system value="http://fhir.nl/fhir/NamingSystem/ura"/>
          <value value="00003333"/>
        </identifier>
        <type>
          <coding>
            <system value="http://nictiz.nl/fhir/NamingSystem/organization-type"/>
            <version value="2022-07-07T00:00:00"/>
            <code value="L1"/>
            <display value="Laboratorium"/>
          </coding>
        </type>
        <name value="Klinisch chemisch Lab 't Proefje"/>
        <telecom>
          <extension url="http://nictiz.nl/fhir/StructureDefinition/ext-Comment">
            <valueString value="Bel met vragen"/>
          </extension>
          <system value="phone"/>
          <value value="06-11122233"/>
          <use value="work"/>
        </telecom>
        <telecom>
          <system value="email"/>
          <value value="tproefje@lab.nl"/>
          <use value="work"/>
        </telecom>
        <address>
          <extension url="http://nictiz.nl/fhir/StructureDefinition/ext-AddressInformation.AddressType">
            <valueCodeableConcept>
              <coding>
                <system value="http://terminology.hl7.org/CodeSystem/v3-AddressUse"/>
                <code value="WP"/>
                <display value="Werkadres"/>
              </coding>
            </valueCodeableConcept>
          </extension>
          <use value="work"/>
          <line value="Hoofdstraat 23">
            <extension url="http://hl7.org/fhir/StructureDefinition/iso21090-ADXP-streetName">
              <valueString value="Hoofdstraat"/>
            </extension>
            <extension url="http://hl7.org/fhir/StructureDefinition/iso21090-ADXP-houseNumber">
              <valueString value="23"/>
            </extension>
          </line>
          <city value="Zorgstad"/>
          <postalCode value="1234AA"/>
        </address>
      </Organization>
    </resource>
    <request>
      <method value="POST"/>
      <url value="Organization"/>
    </request>
  </entry>
  <entry>
    <fullUrl value="urn:uuid:6ac19a04-5c3f-11ed-1944-020000000000"/>
    <resource>
      <Patient>
        <meta>
          <profile value="http://nictiz.nl/fhir/StructureDefinition/nl-core-Patient"/>
        </meta>
        <text>
          <status value="extensions"/>
          <div xmlns="http://www.w3.org/1999/xhtml">
            <div>Id 999900511 (BSN), E. XXX_Doppen, Man, 24 oktober 1963</div>
          </div>
        </text>
        <identifier>
          <system value="http://fhir.nl/fhir/NamingSystem/bsn"/>
          <value value="999900511"/>
        </identifier>
        <name>
          <use value="official"/>
          <text value="E. XXX_Doppen"/>
          <family value="XXX_Doppen">
            <extension url="http://hl7.org/fhir/StructureDefinition/humanname-own-name">
              <valueString value="XXX_Doppen"/>
            </extension>
          </family>
          <given value="E.">
            <extension url="http://hl7.org/fhir/StructureDefinition/iso21090-EN-qualifier">
              <valueCode value="IN"/>
            </extension>
          </given>
        </name>
        <gender value="male">
          <extension url="http://nictiz.nl/fhir/StructureDefinition/ext-CodeSpecification">
            <valueCodeableConcept>
              <coding>
                <system value="http://terminology.hl7.org/CodeSystem/v3-AdministrativeGender"/>
                <code value="M"/>
                <display value="Man"/>
              </coding>
            </valueCodeableConcept>
          </extension>
        </gender>
        <birthDate value="1963-10-24"/>
      </Patient>
    </resource>
    <request>
      <method value="POST"/>
      <url value="Patient"/>
    </request>
  </entry>
</Bundle>
