{
  "resourceType": "Bundle",
  "id": "lr-slr-TEST-Scenario3b-3b1",
  "type": "transaction",
  "entry": [
    {
      "fullUrl": "urn:uuid:6ad89376-5c3f-11ed-1468-020000000000",
      "resource": {
        "resourceType": "Observation",
        "meta": {
          "profile": [
            "http://nictiz.nl/fhir/StructureDefinition/nl-core-LaboratoryTestResult"
          ]
        },
        "extension": [
          {
            "url": "http://nictiz.nl/fhir/StructureDefinition/ext-CopyIndicator",
            "valueBoolean": true
          },
          {
            "url": "http://nictiz.nl/fhir/StructureDefinition/ext-EdifactReferenceNumber",
            "valueString": "111444"
          }
        ],
        "identifier": [
          {
            "system": "urn:oid:2.16.840.1.113883.2.4.3.11.999.25.4298.2",
            "value": "66666"
          }
        ],
        "status": "final",
        "category": [
          {
            "coding": [
              {
                "system": "http://terminology.hl7.org/CodeSystem/observation-category",
                "code": "laboratory",
                "display": "Laboratory"
              }
            ]
          }
        ],
        "code": {
          "coding": [
            {
              "system": "http://loinc.org",
              "code": "2947-0",
              "display": "Natrium [mol/volume] in bloed"
            }
          ]
        },
        "subject": {
          "reference": "urn:uuid:6ad892fe-5c3f-11ed-1468-020000000000",
          "type": "Patient",
          "display": "Patient, Elise Erelies"
        },
        "effectiveDateTime": "${DATE, T, D, -64}",
        "performer": [
          {
            "reference": "urn:uuid:6ad893ee-5c3f-11ed-1468-020000000000",
            "type": "Organization",
            "display": "Healthcare provider (organization), Klinisch chemisch Lab 't Proefje"
          }
        ],
        "valueQuantity": {
          "value": 165,
          "unit": "mmol/l",
          "system": "http://unitsofmeasure.org",
          "code": "mmol/l"
        },
        "interpretation": [
          {
            "coding": [
              {
                "system": "http://snomed.info/sct",
                "code": "281302008",
                "display": "boven referentiebereik"
              },
              {
                "system": "http://terminology.hl7.org/CodeSystem/v3-ObservationInterpretation",
                "code": "H",
                "display": "High"
              }
            ]
          },
          {
            "text": "Te hoog Natriumgehalte"
          }
        ],
        "specimen": {
          "reference": "urn:uuid:6ad8931c-5c3f-11ed-1468-020000000000",
          "type": "Specimen",
          "display": "monster"
        },
        "referenceRange": [
          {
            "low": {
              "value": 135,
              "unit": "mmol/l",
              "system": "http://unitsofmeasure.org",
              "code": "mmol/l"
            },
            "high": {
              "value": 145,
              "unit": "mmol/l",
              "system": "http://unitsofmeasure.org",
              "code": "mmol/l"
            }
          }
        ]
      },
      "request": {
        "method": "POST",
        "url": "Observation"
      }
    },
    {
      "fullUrl": "urn:uuid:6ad89394-5c3f-11ed-1468-020000000000",
      "resource": {
        "resourceType": "Observation",
        "meta": {
          "profile": [
            "http://nictiz.nl/fhir/StructureDefinition/nl-core-LaboratoryTestResult"
          ]
        },
        "extension": [
          {
            "url": "http://nictiz.nl/fhir/StructureDefinition/ext-CopyIndicator",
            "valueBoolean": true
          },
          {
            "url": "http://nictiz.nl/fhir/StructureDefinition/ext-EdifactReferenceNumber",
            "valueString": "111333"
          }
        ],
        "identifier": [
          {
            "system": "urn:oid:2.16.840.1.113883.2.4.3.11.999.25.4298.1",
            "value": "55555"
          }
        ],
        "status": "final",
        "category": [
          {
            "coding": [
              {
                "system": "http://terminology.hl7.org/CodeSystem/observation-category",
                "code": "laboratory",
                "display": "Laboratory"
              }
            ]
          }
        ],
        "code": {
          "coding": [
            {
              "system": "http://loinc.org",
              "code": "6301-6",
              "display": "PT-INR [relatieve tijd] in plaatjesarm plasma d.m.v. stollingsmethode"
            }
          ]
        },
        "subject": {
          "reference": "urn:uuid:6ad892fe-5c3f-11ed-1468-020000000000",
          "type": "Patient",
          "display": "Patient, Elise Erelies"
        },
        "effectiveDateTime": "${DATE, T, D, -10}",
        "performer": [
          {
            "reference": "urn:uuid:6ad89448-5c3f-11ed-1468-020000000000",
            "type": "Organization",
            "display": "Healthcare provider (organization), Trombosedienst Ons Dorp"
          }
        ],
        "valueQuantity": {
          "value": 2.9
        },
        "interpretation": [
          {
            "coding": [
              {
                "system": "http://snomed.info/sct",
                "code": "281302008",
                "display": "boven referentiebereik"
              },
              {
                "system": "http://terminology.hl7.org/CodeSystem/v3-ObservationInterpretation",
                "code": "H",
                "display": "High"
              }
            ]
          },
          {
            "text": "Te hoog let op."
          }
        ],
        "specimen": {
          "reference": "urn:uuid:6ad8933a-5c3f-11ed-1468-020000000000",
          "type": "Specimen",
          "display": "monster"
        },
        "referenceRange": [
          {
            "low": {
              "value": 0.9
            },
            "high": {
              "value": 1.1
            }
          }
        ]
      },
      "request": {
        "method": "POST",
        "url": "Observation"
      }
    },
    {
      "fullUrl": "urn:uuid:6ad893b2-5c3f-11ed-1468-020000000000",
      "resource": {
        "resourceType": "Observation",
        "meta": {
          "profile": [
            "http://nictiz.nl/fhir/StructureDefinition/nl-core-LaboratoryTestResult"
          ]
        },
        "extension": [
          {
            "url": "http://nictiz.nl/fhir/StructureDefinition/ext-CopyIndicator",
            "valueBoolean": true
          },
          {
            "url": "http://nictiz.nl/fhir/StructureDefinition/ext-EdifactReferenceNumber",
            "valueString": "111555"
          }
        ],
        "identifier": [
          {
            "system": "urn:oid:2.16.840.1.113883.2.4.3.11.999.25.4298.4",
            "value": "77777"
          }
        ],
        "status": "final",
        "category": [
          {
            "coding": [
              {
                "system": "http://terminology.hl7.org/CodeSystem/observation-category",
                "code": "laboratory",
                "display": "Laboratory"
              }
            ]
          }
        ],
        "code": {
          "coding": [
            {
              "system": "http://loinc.org",
              "code": "6298-4",
              "display": "Kalium [mol/volume] in bloed"
            }
          ]
        },
        "subject": {
          "reference": "urn:uuid:6ad892fe-5c3f-11ed-1468-020000000000",
          "type": "Patient",
          "display": "Patient, Elise Erelies"
        },
        "effectiveDateTime": "${DATE, T, M, -1}",
        "valueQuantity": {
          "value": 4.0,
          "unit": "mmol/l",
          "system": "http://unitsofmeasure.org",
          "code": "mmol/l"
        },
        "specimen": {
          "reference": "urn:uuid:6ad89358-5c3f-11ed-1468-020000000000",
          "type": "Specimen",
          "display": "monster"
        },
        "referenceRange": [
          {
            "low": {
              "value": 3.5,
              "unit": "mmol/l",
              "system": "http://unitsofmeasure.org",
              "code": "mmol/l"
            },
            "high": {
              "value": 5.0,
              "unit": "mmol/l",
              "system": "http://unitsofmeasure.org",
              "code": "mmol/l"
            }
          }
        ]
      },
      "request": {
        "method": "POST",
        "url": "Observation"
      }
    },
    {
      "fullUrl": "urn:uuid:6ad8931c-5c3f-11ed-1468-020000000000",
      "resource": {
        "resourceType": "Specimen",
        "meta": {
          "profile": [
            "http://nictiz.nl/fhir/StructureDefinition/nl-core-LaboratoryTestResult.Specimen"
          ]
        },
        "identifier": [
          {
            "system": "urn:oid:2.16.840.1.113883.2.4.3.11.999.25.4267.2",
            "value": "334"
          }
        ],
        "subject": {
          "reference": "urn:uuid:6ad892fe-5c3f-11ed-1468-020000000000",
          "type": "Patient",
          "display": "Patient, Elise Erelies"
        },
        "collection": {
          "collectedDateTime": "${DATE, T, D, -65}",
          "method": {
            "coding": [
              {
                "system": "http://snomed.info/sct",
                "code": "713143008",
                "display": "afname van arterieel bloed"
              }
            ]
          }
        },
        "container": [
          {
            "extension": [
              {
                "url": "http://hl7.org/fhir/StructureDefinition/specimen-sequenceNumber",
                "valueInteger": 1
              }
            ]
          }
        ]
      },
      "request": {
        "method": "POST",
        "url": "Specimen"
      }
    },
    {
      "fullUrl": "urn:uuid:6ad8933a-5c3f-11ed-1468-020000000000",
      "resource": {
        "resourceType": "Specimen",
        "meta": {
          "profile": [
            "http://nictiz.nl/fhir/StructureDefinition/nl-core-LaboratoryTestResult.Specimen"
          ]
        },
        "identifier": [
          {
            "system": "urn:oid:2.16.840.1.113883.2.4.3.11.999.25.4267.1",
            "value": "#1"
          }
        ],
        "subject": {
          "reference": "urn:uuid:6ad892fe-5c3f-11ed-1468-020000000000",
          "type": "Patient",
          "display": "Patient, Elise Erelies"
        },
        "collection": {
          "collectedDateTime": "${DATE, T, D, -11}"
        },
        "container": [
          {
            "type": {
              "coding": [
                {
                  "system": "http://snomed.info/sct",
                  "code": "767387006",
                  "display": "vacuümbuis voor bloedafname met citraat, theofylline, adenosine en dipyramidol (fysiek object)"
                }
              ]
            }
          }
        ]
      },
      "request": {
        "method": "POST",
        "url": "Specimen"
      }
    },
    {
      "fullUrl": "urn:uuid:6ad89358-5c3f-11ed-1468-020000000000",
      "resource": {
        "resourceType": "Specimen",
        "meta": {
          "profile": [
            "http://nictiz.nl/fhir/StructureDefinition/nl-core-LaboratoryTestResult.Specimen"
          ]
        },
        "identifier": [
          {
            "system": "urn:oid:2.16.840.1.113883.2.4.3.11.999.25.4267.4",
            "value": "334"
          }
        ],
        "subject": {
          "reference": "urn:uuid:6ad892fe-5c3f-11ed-1468-020000000000",
          "type": "Patient",
          "display": "Patient, Elise Erelies"
        },
        "collection": {
          "collectedDateTime": "${DATE, T, M, -1}",
          "method": {
            "coding": [
              {
                "system": "http://snomed.info/sct",
                "code": "713143008",
                "display": "afname van arterieel bloed"
              }
            ]
          }
        },
        "container": [
          {
            "extension": [
              {
                "url": "http://hl7.org/fhir/StructureDefinition/specimen-sequenceNumber",
                "valueInteger": 2
              }
            ]
          }
        ]
      },
      "request": {
        "method": "POST",
        "url": "Specimen"
      }
    },
    {
      "fullUrl": "urn:uuid:6ad893ee-5c3f-11ed-1468-020000000000",
      "resource": {
        "resourceType": "Organization",
        "meta": {
          "profile": [
            "http://nictiz.nl/fhir/StructureDefinition/nl-core-HealthcareProvider-Organization"
          ]
        },
        "identifier": [
          {
            "system": "http://fhir.nl/fhir/NamingSystem/ura",
            "value": "00003333"
          }
        ],
        "type": [
          {
            "coding": [
              {
                "system": "http://nictiz.nl/fhir/NamingSystem/organization-type",
                "version": "2022-07-07T00:00:00",
                "code": "L1",
                "display": "Laboratorium"
              }
            ]
          }
        ],
        "name": "Klinisch chemisch Lab 't Proefje",
        "telecom": [
          {
            "extension": [
              {
                "url": "http://nictiz.nl/fhir/StructureDefinition/ext-Comment",
                "valueString": "Bel met vragen"
              }
            ],
            "system": "phone",
            "value": "06-11122233",
            "use": "work"
          },
          {
            "system": "email",
            "value": "tproefje@lab.nl",
            "use": "work"
          }
        ],
        "address": [
          {
            "extension": [
              {
                "url": "http://nictiz.nl/fhir/StructureDefinition/ext-AddressInformation.AddressType",
                "valueCodeableConcept": {
                  "coding": [
                    {
                      "system": "http://terminology.hl7.org/CodeSystem/v3-AddressUse",
                      "code": "WP",
                      "display": "Werkadres"
                    }
                  ]
                }
              }
            ],
            "use": "work",
            "line": [
              "Hoofdstraat 23"
            ],
            "_line": [
              {
                "extension": [
                  {
                    "url": "http://hl7.org/fhir/StructureDefinition/iso21090-ADXP-streetName",
                    "valueString": "Hoofdstraat"
                  },
                  {
                    "url": "http://hl7.org/fhir/StructureDefinition/iso21090-ADXP-houseNumber",
                    "valueString": "23"
                  }
                ]
              }
            ],
            "city": "Zorgstad",
            "postalCode": "1234AA"
          }
        ]
      },
      "request": {
        "method": "POST",
        "url": "Organization"
      }
    },
    {
      "fullUrl": "urn:uuid:6ad89448-5c3f-11ed-1468-020000000000",
      "resource": {
        "resourceType": "Organization",
        "meta": {
          "profile": [
            "http://nictiz.nl/fhir/StructureDefinition/nl-core-HealthcareProvider-Organization"
          ]
        },
        "identifier": [
          {
            "system": "http://fhir.nl/fhir/NamingSystem/ura",
            "value": "11112222"
          }
        ],
        "type": [
          {
            "coding": [
              {
                "system": "http://nictiz.nl/fhir/NamingSystem/organization-type",
                "version": "2022-07-07T00:00:00",
                "code": "TD",
                "display": "Trombosedienst"
              }
            ]
          }
        ],
        "name": "Trombosedienst Ons Dorp",
        "telecom": [
          {
            "system": "phone",
            "_system": {
              "extension": [
                {
                  "url": "http://nictiz.nl/fhir/StructureDefinition/ext-CodeSpecification",
                  "valueCodeableConcept": {
                    "coding": [
                      {
                        "system": "http://terminology.hl7.org/CodeSystem/v3-AddressUse",
                        "code": "MC",
                        "display": "Mobiel telefoonnummer"
                      }
                    ]
                  }
                }
              ]
            },
            "value": "06-11122266"
          }
        ],
        "address": [
          {
            "line": [
              "Kerkstraat 28 d"
            ],
            "_line": [
              {
                "extension": [
                  {
                    "url": "http://hl7.org/fhir/StructureDefinition/iso21090-ADXP-streetName",
                    "valueString": "Kerkstraat"
                  },
                  {
                    "url": "http://hl7.org/fhir/StructureDefinition/iso21090-ADXP-houseNumber",
                    "valueString": "28"
                  },
                  {
                    "url": "http://hl7.org/fhir/StructureDefinition/iso21090-ADXP-buildingNumberSuffix",
                    "valueString": "d"
                  }
                ]
              }
            ],
            "city": "Ons Dorp",
            "postalCode": "1332GH"
          }
        ]
      },
      "request": {
        "method": "POST",
        "url": "Organization"
      }
    },
    {
      "fullUrl": "urn:uuid:6ad892fe-5c3f-11ed-1468-020000000000",
      "resource": {
        "resourceType": "Patient",
        "meta": {
          "profile": [
            "http://nictiz.nl/fhir/StructureDefinition/nl-core-Patient"
          ]
        },
        "identifier": [
          {
            "system": "http://fhir.nl/fhir/NamingSystem/bsn",
            "value": "999999114"
          }
        ],
        "name": [
          {
            "use": "official",
            "text": "Elise Erelies",
            "family": "Erelies",
            "_family": {
              "extension": [
                {
                  "url": "http://hl7.org/fhir/StructureDefinition/humanname-own-name",
                  "valueString": "Erelies"
                }
              ]
            },
            "given": [
              "Elise"
            ],
            "_given": [
              {
                "extension": [
                  {
                    "url": "http://hl7.org/fhir/StructureDefinition/iso21090-EN-qualifier",
                    "valueCode": "BR"
                  }
                ]
              }
            ]
          }
        ],
        "gender": "female",
        "_gender": {
          "extension": [
            {
              "url": "http://nictiz.nl/fhir/StructureDefinition/ext-CodeSpecification",
              "valueCodeableConcept": {
                "coding": [
                  {
                    "system": "http://terminology.hl7.org/CodeSystem/v3-AdministrativeGender",
                    "code": "F",
                    "display": "Vrouw"
                  }
                ]
              }
            }
          ]
        },
        "birthDate": "1950-11-01"
      },
      "request": {
        "method": "POST",
        "url": "Patient"
      }
    }
  ]
}