{
  "resourceType": "Bundle",
  "id": "lr-slr-TEST-Scenario4a-4a",
  "type": "transaction",
  "entry": [
    {
      "fullUrl": "urn:uuid:6ade89b6-5c3f-11ed-4420-020000000000",
      "resource": {
        "resourceType": "Observation",
        "meta": {
          "profile": [
            "http://nictiz.nl/fhir/StructureDefinition/nl-core-LaboratoryTestResult"
          ]
        },
        "extension": [
          {
            "url": "http://nictiz.nl/fhir/StructureDefinition/ext-CopyIndicator",
            "valueBoolean": true
          },
          {
            "url": "http://nictiz.nl/fhir/StructureDefinition/ext-EdifactReferenceNumber",
            "valueString": "111666"
          }
        ],
        "identifier": [
          {
            "system": "urn:oid:2.16.840.1.113883.2.4.3.11.999.25.4298.2",
            "value": "88888"
          }
        ],
        "status": "final",
        "category": [
          {
            "coding": [
              {
                "system": "http://terminology.hl7.org/CodeSystem/observation-category",
                "code": "laboratory",
                "display": "Laboratory"
              }
            ]
          }
        ],
        "code": {
          "coding": [
            {
              "system": "https://referentiemodel.nhg.org/tabellen/nhg-tabel-45-diagnostische-bepalingen",
              "code": "3272",
              "display": "Kalium urine 24u"
            }
          ]
        },
        "subject": {
          "reference": "urn:uuid:6ade897a-5c3f-11ed-4420-020000000000",
          "type": "Patient",
          "display": "Patient, Elise Erelies"
        },
        "effectiveDateTime": "${DATE, T, D, -10}",
        "performer": [
          {
            "reference": "urn:uuid:6ade89f2-5c3f-11ed-4420-020000000000",
            "type": "Organization",
            "display": "Healthcare provider (organization), Klinisch chemisch Lab 't Proefje"
          }
        ],
        "valueQuantity": {
          "value": 30,
          "unit": "mmol/(24.h)",
          "system": "http://unitsofmeasure.org",
          "code": "mmol/(24.h)"
        },
        "interpretation": [
          {
            "text": "Lager dan referentiebereik."
          }
        ],
        "specimen": {
          "reference": "urn:uuid:6ade8998-5c3f-11ed-4420-020000000000",
          "type": "Specimen",
          "display": "monster"
        },
        "referenceRange": [
          {
            "low": {
              "value": 40,
              "unit": "mmol/(24.h)",
              "system": "http://unitsofmeasure.org",
              "code": "mmol/(24.h)"
            },
            "high": {
              "value": 60,
              "unit": "mmol/(24.h)",
              "system": "http://unitsofmeasure.org",
              "code": "mmol/(24.h)"
            }
          }
        ]
      },
      "request": {
        "method": "POST",
        "url": "Observation"
      }
    },
    {
      "fullUrl": "urn:uuid:6ade8998-5c3f-11ed-4420-020000000000",
      "resource": {
        "resourceType": "Specimen",
        "meta": {
          "profile": [
            "http://nictiz.nl/fhir/StructureDefinition/nl-core-LaboratoryTestResult.Specimen"
          ]
        },
        "identifier": [
          {
            "system": "urn:oid:2.16.840.1.113883.2.4.3.11.999.25.4267.2",
            "value": "335"
          }
        ],
        "subject": {
          "reference": "urn:uuid:6ade897a-5c3f-11ed-4420-020000000000",
          "type": "Patient",
          "display": "Patient, Elise Erelies"
        },
        "receivedTime": "${DATE, T, D, -9}T11:30:00+02:00",
        "collection": {
          "quantity": {
            "value": 1.75,
            "unit": "l",
            "system": "http://unitsofmeasure.org",
            "code": "l"
          },
          "method": {
            "coding": [
              {
                "system": "http://snomed.info/sct",
                "code": "2475000",
                "display": "verzamelen van 24-uursurine"
              }
            ]
          }
        },
        "container": [
          {
            "extension": [
              {
                "url": "http://hl7.org/fhir/StructureDefinition/specimen-sequenceNumber",
                "valueInteger": 1
              }
            ],
            "type": {
              "coding": [
                {
                  "system": "http://snomed.info/sct",
                  "code": "706055000",
                  "display": "container voor 24-uursurine"
                }
              ]
            }
          }
        ],
        "note": [
          {
            "text": "Monster is door patiënt zelf verzameld en ingeleverd."
          }
        ]
      },
      "request": {
        "method": "POST",
        "url": "Specimen"
      }
    },
    {
      "fullUrl": "urn:uuid:6ade89f2-5c3f-11ed-4420-020000000000",
      "resource": {
        "resourceType": "Organization",
        "meta": {
          "profile": [
            "http://nictiz.nl/fhir/StructureDefinition/nl-core-HealthcareProvider-Organization"
          ]
        },
        "identifier": [
          {
            "system": "http://fhir.nl/fhir/NamingSystem/ura",
            "value": "00003333"
          }
        ],
        "type": [
          {
            "coding": [
              {
                "system": "http://nictiz.nl/fhir/NamingSystem/organization-type",
                "version": "2022-07-07T00:00:00",
                "code": "L1",
                "display": "Laboratorium"
              }
            ]
          }
        ],
        "name": "Klinisch chemisch Lab 't Proefje",
        "telecom": [
          {
            "extension": [
              {
                "url": "http://nictiz.nl/fhir/StructureDefinition/ext-Comment",
                "valueString": "Bel met vragen"
              }
            ],
            "system": "phone",
            "value": "06-11122233",
            "use": "work"
          },
          {
            "system": "email",
            "value": "tproefje@lab.nl",
            "use": "work"
          }
        ],
        "address": [
          {
            "extension": [
              {
                "url": "http://nictiz.nl/fhir/StructureDefinition/ext-AddressInformation.AddressType",
                "valueCodeableConcept": {
                  "coding": [
                    {
                      "system": "http://terminology.hl7.org/CodeSystem/v3-AddressUse",
                      "code": "WP",
                      "display": "Werkadres"
                    }
                  ]
                }
              }
            ],
            "use": "work",
            "line": [
              "Hoofdstraat 23"
            ],
            "_line": [
              {
                "extension": [
                  {
                    "url": "http://hl7.org/fhir/StructureDefinition/iso21090-ADXP-streetName",
                    "valueString": "Hoofdstraat"
                  },
                  {
                    "url": "http://hl7.org/fhir/StructureDefinition/iso21090-ADXP-houseNumber",
                    "valueString": "23"
                  }
                ]
              }
            ],
            "city": "Zorgstad",
            "postalCode": "1234AA"
          }
        ]
      },
      "request": {
        "method": "POST",
        "url": "Organization"
      }
    },
    {
      "fullUrl": "urn:uuid:6ade897a-5c3f-11ed-4420-020000000000",
      "resource": {
        "resourceType": "Patient",
        "meta": {
          "profile": [
            "http://nictiz.nl/fhir/StructureDefinition/nl-core-Patient"
          ]
        },
        "identifier": [
          {
            "system": "http://fhir.nl/fhir/NamingSystem/bsn",
            "value": "999999114"
          }
        ],
        "name": [
          {
            "use": "official",
            "text": "Elise Erelies",
            "family": "Erelies",
            "_family": {
              "extension": [
                {
                  "url": "http://hl7.org/fhir/StructureDefinition/humanname-own-name",
                  "valueString": "Erelies"
                }
              ]
            },
            "given": [
              "Elise"
            ],
            "_given": [
              {
                "extension": [
                  {
                    "url": "http://hl7.org/fhir/StructureDefinition/iso21090-EN-qualifier",
                    "valueCode": "BR"
                  }
                ]
              }
            ]
          }
        ],
        "gender": "female",
        "_gender": {
          "extension": [
            {
              "url": "http://nictiz.nl/fhir/StructureDefinition/ext-CodeSpecification",
              "valueCodeableConcept": {
                "coding": [
                  {
                    "system": "http://terminology.hl7.org/CodeSystem/v3-AdministrativeGender",
                    "code": "F",
                    "display": "Vrouw"
                  }
                ]
              }
            }
          ]
        },
        "birthDate": "1950-11-01"
      },
      "request": {
        "method": "POST",
        "url": "Patient"
      }
    }
  ]
}