{
  "resourceType": "Bundle",
  "id": "lr-slr-TEST-Scenario1a-1a",
  "type": "transaction",
  "entry": [
    {
      "fullUrl": "urn:uuid:6aca34fc-5c3f-11ed-1155-020000000000",
      "resource": {
        "resourceType": "Observation",
        "meta": {
          "profile": [
            "http://nictiz.nl/fhir/StructureDefinition/nl-core-LaboratoryTestResult"
          ]
        },
        "extension": [
          {
            "url": "http://nictiz.nl/fhir/StructureDefinition/ext-CopyIndicator",
            "valueBoolean": true
          },
          {
            "url": "http://nictiz.nl/fhir/StructureDefinition/ext-EdifactReferenceNumber",
            "valueString": "111222"
          }
        ],
        "identifier": [
          {
            "system": "urn:oid:2.16.840.1.113883.2.4.3.11.999.25.4298.2",
            "value": "11111"
          }
        ],
        "status": "final",
        "category": [
          {
            "coding": [
              {
                "system": "http://terminology.hl7.org/CodeSystem/observation-category",
                "code": "laboratory",
                "display": "Laboratory"
              }
            ]
          }
        ],
        "code": {
          "coding": [
            {
              "system": "https://referentiemodel.nhg.org/tabellen/nhg-tabel-45-diagnostische-bepalingen",
              "code": "3583",
              "display": "eGFR volgens CKD-EPI formule"
            }
          ]
        },
        "subject": {
          "reference": "urn:uuid:6aca34c0-5c3f-11ed-1155-020000000000",
          "type": "Patient",
          "display": "Patient, Elise Erelies"
        },
        "effectiveDateTime": "${DATE, T, D, -20}",
        "performer": [
          {
            "reference": "urn:uuid:6aca3556-5c3f-11ed-1155-020000000000",
            "type": "Organization",
            "display": "Healthcare provider (organization), Klinisch chemisch Lab 't Proefje"
          }
        ],
        "valueQuantity": {
          "value": 97,
          "unit": "mL/min/{1.73_m2}",
          "system": "http://unitsofmeasure.org",
          "code": "mL/min/{1.73_m2}"
        },
        "interpretation": [
          {
            "text": "Iets bovengemiddeld"
          }
        ],
        "specimen": {
          "reference": "urn:uuid:6aca34de-5c3f-11ed-1155-020000000000",
          "type": "Specimen",
          "display": "monster"
        },
        "referenceRange": [
          {
            "low": {
              "value": 90,
              "unit": "mL/min/{1.73_m2}",
              "system": "http://unitsofmeasure.org",
              "code": "mL/min/{1.73_m2}"
            }
          }
        ]
      },
      "request": {
        "method": "POST",
        "url": "Observation"
      }
    },
    {
      "fullUrl": "urn:uuid:6aca351a-5c3f-11ed-1155-020000000000",
      "resource": {
        "resourceType": "Observation",
        "meta": {
          "profile": [
            "http://nictiz.nl/fhir/StructureDefinition/nl-core-LaboratoryTestResult"
          ]
        },
        "extension": [
          {
            "url": "http://nictiz.nl/fhir/StructureDefinition/ext-CopyIndicator",
            "valueBoolean": true
          },
          {
            "url": "http://nictiz.nl/fhir/StructureDefinition/ext-EdifactReferenceNumber",
            "valueString": "111222"
          }
        ],
        "identifier": [
          {
            "system": "urn:oid:2.16.840.1.113883.2.4.3.11.999.25.4298.2",
            "value": "22222"
          }
        ],
        "status": "final",
        "category": [
          {
            "coding": [
              {
                "system": "http://terminology.hl7.org/CodeSystem/observation-category",
                "code": "laboratory",
                "display": "Laboratory"
              }
            ]
          }
        ],
        "code": {
          "coding": [
            {
              "system": "https://referentiemodel.nhg.org/tabellen/nhg-tabel-45-diagnostische-bepalingen",
              "code": "523",
              "display": "creatinine"
            }
          ]
        },
        "subject": {
          "reference": "urn:uuid:6aca34c0-5c3f-11ed-1155-020000000000",
          "type": "Patient",
          "display": "Patient, Elise Erelies"
        },
        "effectiveDateTime": "${DATE, T, D, -20}",
        "performer": [
          {
            "reference": "urn:uuid:6aca3556-5c3f-11ed-1155-020000000000",
            "type": "Organization",
            "display": "Healthcare provider (organization), Klinisch chemisch Lab 't Proefje"
          }
        ],
        "valueQuantity": {
          "value": 135,
          "unit": "umol/l",
          "system": "http://unitsofmeasure.org",
          "code": "umol/l"
        },
        "interpretation": [
          {
            "coding": [
              {
                "system": "http://snomed.info/sct",
                "code": "281302008",
                "display": "boven referentiebereik"
              },
              {
                "system": "http://terminology.hl7.org/CodeSystem/v3-ObservationInterpretation",
                "code": "H",
                "display": "High"
              }
            ]
          },
          {
            "text": "Creatinine iets hoger dan normaal."
          }
        ],
        "method": {
          "coding": [
            {
              "system": "http://snomed.info/sct",
              "code": "258026004",
              "display": "enzyme method"
            }
          ]
        },
        "specimen": {
          "reference": "urn:uuid:6aca34de-5c3f-11ed-1155-020000000000",
          "type": "Specimen",
          "display": "monster"
        },
        "referenceRange": [
          {
            "low": {
              "value": 60,
              "unit": "umol/l",
              "system": "http://unitsofmeasure.org",
              "code": "umol/l"
            },
            "high": {
              "value": 110,
              "unit": "umol/l",
              "system": "http://unitsofmeasure.org",
              "code": "umol/l"
            }
          }
        ]
      },
      "request": {
        "method": "POST",
        "url": "Observation"
      }
    },
    {
      "fullUrl": "urn:uuid:6aca34de-5c3f-11ed-1155-020000000000",
      "resource": {
        "resourceType": "Specimen",
        "meta": {
          "profile": [
            "http://nictiz.nl/fhir/StructureDefinition/nl-core-LaboratoryTestResult.Specimen"
          ]
        },
        "identifier": [
          {
            "system": "urn:oid:2.16.840.1.113883.2.4.3.11.999.25.4267.2",
            "value": "1111"
          }
        ],
        "subject": {
          "reference": "urn:uuid:6aca34c0-5c3f-11ed-1155-020000000000",
          "type": "Patient",
          "display": "Patient, Elise Erelies"
        },
        "collection": {
          "collectedDateTime": "${DATE, T, D, -20}"
        },
        "note": [
          {
            "text": "Serum afgenomen bij patiënt."
          }
        ]
      },
      "request": {
        "method": "POST",
        "url": "Specimen"
      }
    },
    {
      "fullUrl": "urn:uuid:6aca3556-5c3f-11ed-1155-020000000000",
      "resource": {
        "resourceType": "Organization",
        "meta": {
          "profile": [
            "http://nictiz.nl/fhir/StructureDefinition/nl-core-HealthcareProvider-Organization"
          ]
        },
        "identifier": [
          {
            "system": "http://fhir.nl/fhir/NamingSystem/ura",
            "value": "00003333"
          }
        ],
        "type": [
          {
            "coding": [
              {
                "system": "http://nictiz.nl/fhir/NamingSystem/organization-type",
                "version": "2022-07-07T00:00:00",
                "code": "L1",
                "display": "Laboratorium"
              }
            ]
          }
        ],
        "name": "Klinisch chemisch Lab 't Proefje",
        "telecom": [
          {
            "extension": [
              {
                "url": "http://nictiz.nl/fhir/StructureDefinition/ext-Comment",
                "valueString": "Bel met vragen"
              }
            ],
            "system": "phone",
            "value": "06-11122233",
            "use": "work"
          },
          {
            "system": "email",
            "value": "tproefje@lab.nl",
            "use": "work"
          }
        ],
        "address": [
          {
            "extension": [
              {
                "url": "http://nictiz.nl/fhir/StructureDefinition/ext-AddressInformation.AddressType",
                "valueCodeableConcept": {
                  "coding": [
                    {
                      "system": "http://terminology.hl7.org/CodeSystem/v3-AddressUse",
                      "code": "WP",
                      "display": "Werkadres"
                    }
                  ]
                }
              }
            ],
            "use": "work",
            "line": [
              "Hoofdstraat 23"
            ],
            "_line": [
              {
                "extension": [
                  {
                    "url": "http://hl7.org/fhir/StructureDefinition/iso21090-ADXP-streetName",
                    "valueString": "Hoofdstraat"
                  },
                  {
                    "url": "http://hl7.org/fhir/StructureDefinition/iso21090-ADXP-houseNumber",
                    "valueString": "23"
                  }
                ]
              }
            ],
            "city": "Zorgstad",
            "postalCode": "1234AA"
          }
        ]
      },
      "request": {
        "method": "POST",
        "url": "Organization"
      }
    },
    {
      "fullUrl": "urn:uuid:6aca34c0-5c3f-11ed-1155-020000000000",
      "resource": {
        "resourceType": "Patient",
        "meta": {
          "profile": [
            "http://nictiz.nl/fhir/StructureDefinition/nl-core-Patient"
          ]
        },
        "identifier": [
          {
            "system": "http://fhir.nl/fhir/NamingSystem/bsn",
            "value": "999999114"
          }
        ],
        "name": [
          {
            "use": "official",
            "text": "Elise Erelies",
            "family": "Erelies",
            "_family": {
              "extension": [
                {
                  "url": "http://hl7.org/fhir/StructureDefinition/humanname-own-name",
                  "valueString": "Erelies"
                }
              ]
            },
            "given": [
              "Elise"
            ],
            "_given": [
              {
                "extension": [
                  {
                    "url": "http://hl7.org/fhir/StructureDefinition/iso21090-EN-qualifier",
                    "valueCode": "BR"
                  }
                ]
              }
            ]
          }
        ],
        "gender": "female",
        "_gender": {
          "extension": [
            {
              "url": "http://nictiz.nl/fhir/StructureDefinition/ext-CodeSpecification",
              "valueCodeableConcept": {
                "coding": [
                  {
                    "system": "http://terminology.hl7.org/CodeSystem/v3-AdministrativeGender",
                    "code": "F",
                    "display": "Vrouw"
                  }
                ]
              }
            }
          ]
        },
        "birthDate": "1950-11-01"
      },
      "request": {
        "method": "POST",
        "url": "Patient"
      }
    }
  ]
}