{
  "resourceType": "Bundle",
  "type": "transaction",
  "entry": [ {
    "fullUrl": "urn:uuid:fcd91455-ba58-403b-a932-9f3ac8d0e743",
    "resource": {
      "resourceType": "List",
      "meta": {
        "profile": [ "http://nictiz.nl/fhir/StructureDefinition/images-List" ]
      },
      "text": {
        "status": "extensions",
        "div": "<div xmlns=\"http://www.w3.org/1999/xhtml\">\n            <table>\n              <caption>Lijst. Subject: XXX-TEST-C. Id: C001 (http://example-xis.org/fhir/NamingSystem/image-listID), Status: actueel</caption>\n              <tfoot>\n                <tr>\n                  <td>\n                    <div>Ontvanger: Dhr. A. Cornelissen, afdeling Cardiologie</div>\n                  </td>\n                </tr>\n              </tfoot>\n              <tbody>\n                <tr>\n                  <th>Wijze</th>\n                  <td>Snapshot-kopie</td>\n                </tr>\n                <tr>\n                  <th>Gemaakt</th>\n                  <td>${DATETIME, T, D, -0}</td>\n                </tr>\n                <tr>\n                  <td>AppelPNG</td>\n                </tr>\n                <tr>\n                  <td>AppelJPEG</td>\n                </tr>\n                <tr>\n                  <td>AppelGIF</td>\n                </tr>\n              </tbody>\n            </table>\n          </div>"
      },
      "extension": [ {
        "url": "http://nictiz.nl/fhir/StructureDefinition/images-recipient",
        "valueReference": {
          "reference": "urn:uuid:88567666-7a98-44e4-b113-f7f83b36c159",
          "display": "Dhr. A. Cornelissen, afdeling Cardiologie"
        }
      } ],
      "identifier": [ {
        "system": "http://example-xis.org/fhir/NamingSystem/image-listID",
        "value": "C001"
      } ],
      "status": "current",
      "mode": "snapshot",
      "subject": {
        "reference": "urn:uuid:34ebe359-bfdc-4613-8bf2-c5e300945f0a",
        "display": "XXX-TEST-C"
      },
      "date": "${DATETIME, T, D, -0}",
      "entry": [ {
        "item": {
          "reference": "urn:uuid:92016563-483f-484b-b2ac-3e699a165630",
          "display": "AppelPNG"
        }
      }, {
        "item": {
          "reference": "urn:uuid:d3f8de4c-b44d-493e-96e9-d835298e7a36",
          "display": "AppelJPEG"
        }
      }, {
        "item": {
          "reference": "urn:uuid:f1bbbfef-82ad-4f68-87a0-49ff4b13b3df",
          "display": "AppelGIF"
        }
      } ]
    },
    "request": {
      "method": "POST",
      "url": "List"
    }
  }, {
    "fullUrl": "urn:uuid:92016563-483f-484b-b2ac-3e699a165630",
    "resource": {
      "resourceType": "Media",
      "meta": {
        "profile": [ "http://nictiz.nl/fhir/StructureDefinition/images-Media" ]
      },
      "text": {
        "status": "extensions",
        "div": "<div xmlns=\"http://www.w3.org/1999/xhtml\">\n            <table>\n              <caption>Media. Subject: XXX-TEST-C. Id: B001 (http://example-xis.org/fhir/NamingSystem/imageID)</caption>\n              <tfoot>\n                <tr>\n                  <td colspan=\"2\">Lorem ipsum dolor sit amet, consectetur adipiscing elit. Vivamus et metus ut nibh vulputate varius et ut nulla. Mauris sagittis, ex eu pellentesque porta, sapien nunc cursus diam, eget viverra leo mi eu lectus. Duis id condimentum metus. Praesent consectetur vel ante vitae viverra. Donec velit mauris, egestas quis placerat eget, sodales a velit. Pellentesque tortor ex, lobortis sit amet enim et, condimentum facilisis urna.                         Phasellus posuere hendrerit condimentum. Praesent condimentum pellentesque congue. In tempor risus eu sem porttitor, at consequat tortor hendrerit. Ut vulputate, augue nec luctus vulputate, urna ipsum aliquam quam, vel varius mi augue at neque. Aenean gravida lacinia ipsum tempus scelerisque. Ut sit amet augue placerat, ornare tellus nec, molestie dolor. Sed tempus euismod ligula, quis sodales diam bibendum in.</td>\n                </tr>\n              </tfoot>\n              <tbody>\n                <tr>\n                  <td colspan=\"2\">\n                    <img src=\"data:image/png;base64,\" alt=\"null\" title=\"AppelPNG\"/>\n                  </td>\n                </tr>\n                <tr>\n                  <th>Type</th>\n                  <td>photo</td>\n                </tr>\n                <tr>\n                  <th>Media verzameldatum/tijd</th>\n                  <td>${DATETIME, T, D, -0}</td>\n                </tr>\n              </tbody>\n            </table>\n          </div>"
      },
      "identifier": [ {
        "use": "official",
        "system": "http://example-xis.org/fhir/NamingSystem/imageID",
        "value": "B001"
      } ],
      "type": "photo",
      "subject": {
        "reference": "urn:uuid:34ebe359-bfdc-4613-8bf2-c5e300945f0a",
        "display": "XXX-TEST-C"
      },
      "occurrenceDateTime": "${DATETIME, T, D, -0}",
      "content": {
        "contentType": "image/png",
        "url": "urn:uuid:61ebe359-bfdc-4613-8bf2-c5e300945f0a",
        "size": 24930000,
        "hash": "28886bba8923a5992a4767f3f4e0d38fde26905d",
        "title": "AppelPNG"
      },
      "note": [ {
        "text": "Lorem ipsum dolor sit amet, consectetur adipiscing elit. Vivamus et metus ut nibh vulputate varius et ut nulla. Mauris sagittis, ex eu pellentesque porta, sapien nunc cursus diam, eget viverra leo mi eu lectus. Duis id condimentum metus. Praesent consectetur vel ante vitae viverra. Donec velit mauris, egestas quis placerat eget, sodales a velit. Pellentesque tortor ex, lobortis sit amet enim et, condimentum facilisis urna.                         Phasellus posuere hendrerit condimentum. Praesent condimentum pellentesque congue. In tempor risus eu sem porttitor, at consequat tortor hendrerit. Ut vulputate, augue nec luctus vulputate, urna ipsum aliquam quam, vel varius mi augue at neque. Aenean gravida lacinia ipsum tempus scelerisque. Ut sit amet augue placerat, ornare tellus nec, molestie dolor. Sed tempus euismod ligula, quis sodales diam bibendum in."
      } ]
    },
    "request": {
      "method": "POST",
      "url": "Media"
    }
  }, {
    "fullUrl": "urn:uuid:d3f8de4c-b44d-493e-96e9-d835298e7a36",
    "resource": {
      "resourceType": "Media",
      "meta": {
        "profile": [ "http://nictiz.nl/fhir/StructureDefinition/images-Media" ]
      },
      "text": {
        "status": "extensions",
        "div": "<div xmlns=\"http://www.w3.org/1999/xhtml\">\n            <table>\n              <caption>Media. Subject: XXX-TEST-C. Id: B002 (http://example-xis.org/fhir/NamingSystem/imageID)</caption>\n              <tfoot>\n                <tr>\n                  <td colspan=\"2\">Lorem ipsum dolor sit amet, consectetur adipiscing elit. Vivamus et metus ut nibh vulputate varius et ut nulla. Mauris sagittis, ex eu pellentesque porta, sapien nunc cursus diam, eget viverra leo mi eu lectus. Duis id condimentum metus. Praesent consectetur vel ante vitae viverra. Donec velit mauris, egestas quis placerat eget, sodales a velit. Pellentesque tortor ex, lobortis sit amet enim et, condimentum facilisis urna.                         Phasellus posuere hendrerit condimentum. Praesent condimentum pellentesque congue. In tempor risus eu sem porttitor, at consequat tortor hendrerit. Ut vulputate, augue nec luctus vulputate, urna ipsum aliquam quam, vel varius mi augue at neque. Aenean gravida lacinia ipsum tempus scelerisque. Ut sit amet augue placerat, ornare tellus nec, molestie dolor. Sed tempus euismod ligula, quis sodales diam bibendum in.</td>\n                </tr>\n              </tfoot>\n              <tbody>\n                <tr>\n                  <td colspan=\"2\">\n                    <img src=\"data:image/jpeg;base64,\" alt=\"null\" title=\"AppelJPG\"/>\n                  </td>\n                </tr>\n                <tr>\n                  <th>Type</th>\n                  <td>photo</td>\n                </tr>\n                <tr>\n                  <th>Media verzameldatum/tijd</th>\n                  <td>${DATETIME, T, D, -0}</td>\n                </tr>\n              </tbody>\n            </table>\n          </div>"
      },
      "identifier": [ {
        "use": "official",
        "system": "http://example-xis.org/fhir/NamingSystem/imageID",
        "value": "B002"
      } ],
      "type": "photo",
      "subject": {
        "reference": "urn:uuid:34ebe359-bfdc-4613-8bf2-c5e300945f0a",
        "display": "XXX-TEST-C"
      },
      "occurrenceDateTime": "${DATETIME, T, D, -0}",
      "content": {
        "contentType": "image/jpeg",
        "url": "urn:uuid:6437862d-0fc5-4271-a1fd-9de5837dc2aa",
        "size": 8231000,
        "hash": "9ac55c1df7bf7a4fa8fc9063156451bac08d14b7",
        "title": "AppelJPG"
      },
      "note": [ {
        "text": "Lorem ipsum dolor sit amet, consectetur adipiscing elit. Vivamus et metus ut nibh vulputate varius et ut nulla. Mauris sagittis, ex eu pellentesque porta, sapien nunc cursus diam, eget viverra leo mi eu lectus. Duis id condimentum metus. Praesent consectetur vel ante vitae viverra. Donec velit mauris, egestas quis placerat eget, sodales a velit. Pellentesque tortor ex, lobortis sit amet enim et, condimentum facilisis urna.                         Phasellus posuere hendrerit condimentum. Praesent condimentum pellentesque congue. In tempor risus eu sem porttitor, at consequat tortor hendrerit. Ut vulputate, augue nec luctus vulputate, urna ipsum aliquam quam, vel varius mi augue at neque. Aenean gravida lacinia ipsum tempus scelerisque. Ut sit amet augue placerat, ornare tellus nec, molestie dolor. Sed tempus euismod ligula, quis sodales diam bibendum in."
      } ]
    },
    "request": {
      "method": "POST",
      "url": "Media"
    }
  }, {
    "fullUrl": "urn:uuid:f1bbbfef-82ad-4f68-87a0-49ff4b13b3df",
    "resource": {
      "resourceType": "Media",
      "meta": {
        "profile": [ "http://nictiz.nl/fhir/StructureDefinition/images-Media" ]
      },
      "text": {
        "status": "extensions",
        "div": "<div xmlns=\"http://www.w3.org/1999/xhtml\">\n            <table>\n              <caption>Media. Subject: XXX-TEST-C. Id: B003 (http://example-xis.org/fhir/NamingSystem/imageID)</caption>\n              <tfoot>\n                <tr>\n                  <td colspan=\"2\">Lorem ipsum dolor sit amet, consectetur adipiscing elit. Vivamus et metus ut nibh vulputate varius et ut nulla. Mauris sagittis, ex eu pellentesque porta, sapien nunc cursus diam, eget viverra leo mi eu lectus. Duis id condimentum metus. Praesent consectetur vel ante vitae viverra. Donec velit mauris, egestas quis placerat eget, sodales a velit. Pellentesque tortor ex, lobortis sit amet enim et, condimentum facilisis urna.                         Phasellus posuere hendrerit condimentum. Praesent condimentum pellentesque congue. In tempor risus eu sem porttitor, at consequat tortor hendrerit. Ut vulputate, augue nec luctus vulputate, urna ipsum aliquam quam, vel varius mi augue at neque. Aenean gravida lacinia ipsum tempus scelerisque. Ut sit amet augue placerat, ornare tellus nec, molestie dolor. Sed tempus euismod ligula, quis sodales diam bibendum in.</td>\n                </tr>\n              </tfoot>\n              <tbody>\n                <tr>\n                  <td colspan=\"2\">\n                    <img src=\"data:image/gif;base64,\" alt=\"null\" title=\"AppelGIF\"/>\n                  </td>\n                </tr>\n                <tr>\n                  <th>Type</th>\n                  <td>photo</td>\n                </tr>\n                <tr>\n                  <th>Media verzameldatum/tijd</th>\n                  <td>${DATETIME, T, D, -0}</td>\n                </tr>\n              </tbody>\n            </table>\n          </div>"
      },
      "identifier": [ {
        "use": "official",
        "system": "http://example-xis.org/fhir/NamingSystem/imageID",
        "value": "B003"
      } ],
      "type": "photo",
      "subject": {
        "reference": "urn:uuid:34ebe359-bfdc-4613-8bf2-c5e300945f0a",
        "display": "XXX-TEST-C"
      },
      "occurrenceDateTime": "${DATETIME, T, D, -0}",
      "content": {
        "contentType": "image/gif",
        "url": "urn:uuid:66b1441d-d8f7-4f7b-be9e-83ae9a5632b6",
        "size": 56000,
        "hash": "8351481a7af5e6219d638a2019ded0ffd223674d",
        "title": "AppelGIF"
      },
      "note": [ {
        "text": "Lorem ipsum dolor sit amet, consectetur adipiscing elit. Vivamus et metus ut nibh vulputate varius et ut nulla. Mauris sagittis, ex eu pellentesque porta, sapien nunc cursus diam, eget viverra leo mi eu lectus. Duis id condimentum metus. Praesent consectetur vel ante vitae viverra. Donec velit mauris, egestas quis placerat eget, sodales a velit. Pellentesque tortor ex, lobortis sit amet enim et, condimentum facilisis urna.                         Phasellus posuere hendrerit condimentum. Praesent condimentum pellentesque congue. In tempor risus eu sem porttitor, at consequat tortor hendrerit. Ut vulputate, augue nec luctus vulputate, urna ipsum aliquam quam, vel varius mi augue at neque. Aenean gravida lacinia ipsum tempus scelerisque. Ut sit amet augue placerat, ornare tellus nec, molestie dolor. Sed tempus euismod ligula, quis sodales diam bibendum in."
      } ]
    },
    "request": {
      "method": "POST",
      "url": "Media"
    }
  }, {
    "fullUrl": "urn:uuid:61ebe359-bfdc-4613-8bf2-c5e300945f0a",
    "resource": {
      "resourceType": "Binary",
      "contentType": "image/png",
      "content": ""
    },
    "request": {
      "method": "POST",
      "url": "Binary"
    }
  }, {
    "fullUrl": "urn:uuid:6437862d-0fc5-4271-a1fd-9de5837dc2aa",
    "resource": {
      "resourceType": "Binary",
      "contentType": "image/jpeg",
      "content": ""
    },
    "request": {
      "method": "POST",
      "url": "Binary"
    }
  }, {
    "fullUrl": "urn:uuid:66b1441d-d8f7-4f7b-be9e-83ae9a5632b6",
    "resource": {
      "resourceType": "Binary",
      "contentType": "image/gif",
      "content": ""
    },
    "request": {
      "method": "POST",
      "url": "Binary"
    }
  }, {
    "fullUrl": "urn:uuid:34ebe359-bfdc-4613-8bf2-c5e300945f0a",
    "resource": {
      "resourceType": "Patient",
      "meta": {
        "profile": [ "http://fhir.nl/fhir/StructureDefinition/nl-core-patient" ]
      },
      "text": {
        "status": "extensions",
        "div": "<div xmlns=\"http://www.w3.org/1999/xhtml\">\n            <div>Id <i>afgeschermd (ontbrekend gegeven)</i> (BSN), U. XXX-TEST-C, Man, 3 maart 1940</div>\n            <div>Knolweg 1003, 9999ZA Stitswerd</div>\n          </div>"
      },
      "identifier": [ {
        "system": "http://fhir.nl/fhir/NamingSystem/bsn",
        "_value": {
          "extension": [ {
            "url": "http://hl7.org/fhir/StructureDefinition/data-absent-reason",
            "valueCode": "masked"
          } ]
        }
      } ],
      "name": [ {
        "text": "U. XXX-TEST-C",
        "family": "XXX-TEST-C",
        "given": [ "U" ],
        "_given": [ {
          "extension": [ {
            "url": "http://hl7.org/fhir/StructureDefinition/iso21090-EN-qualifier",
            "valueCode": "BR"
          } ]
        } ]
      } ],
      "gender": "male",
      "_gender": {
        "extension": [ {
          "url": "http://nictiz.nl/fhir/StructureDefinition/code-specification",
          "valueCodeableConcept": {
            "coding": [ {
              "system": "http://hl7.org/fhir/v3/AdministrativeGender",
              "code": "M",
              "display": "Man"
            } ]
          }
        } ]
      },
      "birthDate": "1940-03-03",
      "address": [ {
        "line": [ "Knolweg 1003" ],
        "_line": [ {
          "extension": [ {
            "url": "http://hl7.org/fhir/StructureDefinition/iso21090-ADXP-streetName",
            "valueString": "Knolweg"
          }, {
            "url": "http://hl7.org/fhir/StructureDefinition/iso21090-ADXP-houseNumber",
            "valueString": "1003"
          } ]
        } ],
        "city": "Stitswerd",
        "postalCode": "9999ZA"
      } ]
    },
    "request": {
      "method": "POST",
      "url": "Patient"
    }
  }, {
    "fullUrl": "urn:uuid:88567666-7a98-44e4-b113-f7f83b36c159",
    "resource": {
      "resourceType": "PractitionerRole",
      "meta": {
        "profile": [ "http://fhir.nl/fhir/StructureDefinition/nl-core-practitionerrole" ]
      },
      "text": {
        "status": "extensions",
        "div": "<div xmlns=\"http://www.w3.org/1999/xhtml\">\n            <table>\n              <caption>Zorgverlenerrol. </caption>\n              <tbody>\n                <tr>\n                  <th>Zorgverlener</th>\n                  <td>\n                    <div>Dhr. Jansen</div>\n                  </td>\n                </tr>\n                <tr>\n                  <th>Specialisme</th>\n                  <td>\n                    <span title=\"Medisch specialisten, cardiologie (0320 - AGB-medisch specialisme)\">Medisch specialisten, cardiologie</span>\n                  </td>\n                </tr>\n              </tbody>\n            </table>\n          </div>"
      },
      "practitioner": {
        "reference": "urn:uuid:446ca51d-e180-42ff-9cd9-b91d93c2c417",
        "display": "Dhr. Jansen"
      },
      "specialty": [ {
        "coding": [ {
          "system": "urn:oid:2.16.840.1.113883.2.4.6.7",
          "code": "0320",
          "display": "Medisch specialisten, cardiologie"
        } ]
      } ]
    },
    "request": {
      "method": "POST",
      "url": "PractitionerRole"
    }
  }, {
    "fullUrl": "urn:uuid:446ca51d-e180-42ff-9cd9-b91d93c2c417",
    "resource": {
      "resourceType": "Practitioner",
      "meta": {
        "profile": [ "http://fhir.nl/fhir/StructureDefinition/nl-core-practitioner" ]
      },
      "text": {
        "status": "extensions",
        "div": "<div xmlns=\"http://www.w3.org/1999/xhtml\">\n            <div>Jansen, Man</div>\n          </div>"
      },
      "name": [ {
        "family": "Jansen"
      } ],
      "gender": "male",
      "_gender": {
        "extension": [ {
          "url": "http://nictiz.nl/fhir/StructureDefinition/code-specification",
          "valueCodeableConcept": {
            "coding": [ {
              "system": "http://hl7.org/fhir/v3/AdministrativeGender",
              "code": "M",
              "display": "Man"
            } ]
          }
        } ]
      }
    },
    "request": {
      "method": "POST",
      "url": "Practitioner"
    }
  } ]
}