<?xml version="1.0" encoding="UTF-8"?>
<Bundle xmlns="http://hl7.org/fhir">
    <id value="MO-XXX-RUYS"/>
    <meta>
        <profile value="http://nictiz.nl/fhir/StructureDefinition/Bundle-MedicationOverview"/>
    </meta>
    <type value="searchset"/>
    <total value="3"/>
    <entry>
        <fullUrl value="urn:uuid:69469a35-cff2-11e9-8882-28f10e481d92"/>
        <resource>
            <List>
                <meta>
                    <profile value="http://nictiz.nl/fhir/StructureDefinition/MedicationOverview"/>
                </meta>
                <extension url="http://nictiz.nl/fhir/StructureDefinition/MedicationOverview-Verification">
                    <extension url="VerificationPatient">
                        <valueBoolean value="false"/>
                    </extension>
                    <extension url="VerificationHealthProfessional">
                        <valueBoolean value="false"/>
                    </extension>
                </extension>
                <status value="current"/>
                <mode value="snapshot"/>
                <code>
                    <coding>
                        <system value="http://snomed.info/sct"/>
                        <code value="11181000146103"/>
                        <display value="Actual medication overview (record artifact)"/>
                    </coding>
                    <text value="Medicatieoverzicht"/>
                </code>
                <subject>
                    <reference value="urn:uuid:694697ab-cff2-11e9-8882-28f10e481d92"/>
                    <display value="R. XXX_Ruys"/>
                </subject>
                <date value="${DATE, T, D, -0}T00:00:00+02:00"/>
                <source>
                    <extension url="http://nictiz.nl/fhir/StructureDefinition/MedicationOverview-SourceOrganization">
                        <valueReference>
                            <reference value="urn:uuid:69469a39-cff2-11e9-8882-28f10e481d92"/>
                            <display value="Apotheek de Gulle Gaper"/>
                        </valueReference>
                    </extension>
                    <display value="Apotheek de Gulle Gaper"/>
                </source>
            </List>
        </resource>
    </entry>
    <entry>
        <fullUrl value="urn:uuid:694697ab-cff2-11e9-8882-28f10e481d92"/>
        <resource>
            <Patient>
                <meta>
                    <profile value="http://fhir.nl/fhir/StructureDefinition/nl-core-patient"/>
                </meta>
                <identifier>
                    <system value="http://fhir.nl/fhir/NamingSystem/bsn"/>
                    <value>
                        <extension url="http://hl7.org/fhir/StructureDefinition/data-absent-reason">
                            <valueCode value="masked"/>
                        </extension>
                    </value>
                </identifier>
                <identifier>
                    <system value="urn:oid:2.16.840.1.113883.2.4.3.11.999.77.19829.1"/>
                    <value value="13103"/>
                </identifier>
                <name>
                    <extension url="http://hl7.org/fhir/StructureDefinition/humanname-assembly-order">
                        <valueCode value="NL1"/>
                    </extension>
                    <family value="XXX_Ruys">
                        <extension url="http://hl7.org/fhir/StructureDefinition/humanname-own-name">
                            <valueString value="XXX_Ruys"/>
                        </extension>
                    </family>
                    <given value="R.">
                        <extension url="http://hl7.org/fhir/StructureDefinition/iso21090-EN-qualifier">
                            <valueCode value="IN"/>
                        </extension>
                    </given>
                </name>
                <telecom>
                    <system value="phone"/>
                    <value value="+31612341234"/>
                    <use value="home"/>
                </telecom>
                <gender value="male">
                    <extension url="http://nictiz.nl/fhir/StructureDefinition/code-specification">
                        <valueCodeableConcept>
                            <coding>
                                <system value="http://hl7.org/fhir/v3/AdministrativeGender"/>
                                <code value="M"/>
                                <display value="Man"/>
                            </coding>
                        </valueCodeableConcept>
                    </extension>
                </gender>
                <birthDate value="1964-08-01"/>
                <address>
                    <extension url="http://hl7.org/fhir/StructureDefinition/iso21090-AD-use">
                        <valueCode value="PHYS"/>
                    </extension>
                    <use value="home"/>
                    <type value="physical"/>
                    <line value="Knolweg  1000">
                        <extension url="http://hl7.org/fhir/StructureDefinition/iso21090-ADXP-streetName">
                            <valueString value="Knolweg "/>
                        </extension>
                        <extension url="http://hl7.org/fhir/StructureDefinition/iso21090-ADXP-houseNumber">
                            <valueString value="1000"/>
                        </extension>
                    </line>
                    <city value="Stitswerd"/>
                    <postalCode value="9999XA"/>
                </address>
            </Patient>
        </resource>
    </entry>
    <entry>
        <fullUrl value="urn:uuid:69469a39-cff2-11e9-8882-28f10e481d92"/>
        <resource>
            <Organization>
                <meta>
                    <profile value="http://fhir.nl/fhir/StructureDefinition/nl-core-organization"/>
                </meta>
                <name value="Apotheek de Gulle Gaper"/>
                <telecom>
                    <system value="phone"/>
                    <value value="+31703655424"/>
                    <use value="work"/>
                </telecom>
                <telecom>
                    <system value="email"/>
                    <value value="info@apotheekgullegaper.com"/>
                    <use value="work"/>
                </telecom>
                <address>
                    <use value="work"/>
                    <line value="Straat 5">
                        <extension url="http://hl7.org/fhir/StructureDefinition/iso21090-ADXP-streetName">
                            <valueString value="Straat"/>
                        </extension>
                        <extension url="http://hl7.org/fhir/StructureDefinition/iso21090-ADXP-houseNumber">
                            <valueString value="5"/>
                        </extension>
                    </line>
                    <city value="Utrecht"/>
                    <postalCode value="1598 FG"/>
                </address>
            </Organization>
        </resource>
    </entry>
</Bundle>
